NAFC_Y2K_HEADER
20390090  49 41.00 -050  1.00 2001-11-23 15:27 0587 S0277 069 V   BB-11        1
20390090 002415  8.00 A 09 #PTCSMOFL-----------            D 000 0000 0597 000 4
20390090                                                                       8
-- CHANNEL STATS -->
# span     scan =     10.000, 17371.000
# span     pres =      1.744,   597.039
# span     temp =      2.467,     4.536
# span     cond =      2.988,     3.277
# span      sal =     33.381,    34.862
# span     sigt =     26.638,    27.688
# span      oxy =      7.140,     8.361
# span     flor =     -0.005,     0.260
# span      par =      1.437,   614.100
-- END --
-- HISTORY --> Tue May  9 14:42:35 2006
>SELECT_PROBE S
>READ # (DP) T C S O F L  scan pres temp cond sal oxy flor par
>/* STABILIZE_RESTRICT USING= pres 25.0 5 */
>RESTRICT USING= pres 0.0 4000.0
>RESTRICT USING= cond 2.0 5.0
>RESTRICT USING= temp -2.0 20.0
>MEDIANFILTER pres 21 1
>MEDIANFILTER temp 21 1
>MEDIANFILTER cond 21 1
>MEDIANFILTER flor 21 1
>MEDIANFILTER oxy 21 1
>MEDIANFILTER par 21 1
>SELECT_DN USING= pres
>/*
>SALINITY PRESSURE=pres CONDUCTIVITY=cond TEMPERATURE=temp RESULT=sal
>RESTRICT USING= sal 26.0 37.0
>*/
>MEDIANFILTER sal 21 1
>SIGMAT SALINITY=sal TEMPERATURE=temp RESULT=sigt
>MEDIANFILTER sigt 21 1
>HISTORY_ON
>WRITEFILE .p???? scan pres temp cond sal sigt oxy flor par
-- END --
 scan     pres     temp     cond      sal     sigt      oxy     flor      par 
-- DATA --
   10    1.744    2.467    2.988   33.381   26.638    8.357    0.121  607.200 
   42    1.960    2.468    2.988   33.381   26.638    8.361    0.124  614.100 
   57    2.110    2.468    2.988   33.381   26.638    8.358    0.126  610.900 
  246    2.251    2.473    2.989   33.384   26.640    8.356    0.124  566.900 
  621    2.449    2.473    2.989   33.386   26.641    8.341    0.131  426.200 
  624    2.530    2.473    2.989   33.386   26.641    8.341    0.130  395.000 
  627    2.622    2.474    2.989   33.387   26.642    8.340    0.130  369.000 
  633    2.780    2.474    2.989   33.387   26.642    8.340    0.130  371.400 
  641    2.998    2.474    2.989   33.387   26.642    8.343    0.128  385.700 
  645    3.120    2.475    2.989   33.388   26.643    8.343    0.128  419.000 
  649    3.327    2.473    2.989   33.385   26.641    8.345    0.125  389.500 
  652    3.453    2.473    2.989   33.386   26.641    8.345    0.125  385.700 
  656    3.588    2.473    2.989   33.386   26.641    8.345    0.125  371.400 
  661    3.780    2.473    2.989   33.386   26.641    8.345    0.125  369.000 
  665    4.000    2.473    2.989   33.386   26.641    8.345    0.126  347.800 
  668    4.124    2.473    2.989   33.386   26.641    8.346    0.126  329.900 
  671    4.267    2.473    2.989   33.385   26.641    8.346    0.126  315.100 
  674    4.435    2.473    2.989   33.385   26.641    8.347    0.126  312.800 
  677    4.579    2.472    2.989   33.385   26.641    8.347    0.126  308.200 
  680    4.734    2.472    2.989   33.385   26.641    8.347    0.126  298.500 
  685    5.016    2.472    2.989   33.385   26.641    8.347    0.126  298.500 
  689    5.204    2.472    2.989   33.385   26.641    8.348    0.126  289.500 
  695    5.548    2.472    2.989   33.385   26.641    8.348    0.126  263.200 
  699    5.762    2.472    2.989   33.385   26.641    8.349    0.126  238.800 
  705    6.123    2.472    2.989   33.385   26.641    8.349    0.128  235.700 
  708    6.268    2.472    2.989   33.385   26.641    8.349    0.129  222.000 
  714    6.563    2.472    2.989   33.385   26.641    8.349    0.129  221.200 
  718    6.796    2.472    2.989   33.385   26.641    8.349    0.130  221.200 
  721    6.924    2.473    2.989   33.385   26.641    8.350    0.130  219.400 
  730    7.298    2.473    2.989   33.386   26.641    8.350    0.131  219.000 
  740    7.629    2.474    2.989   33.386   26.641    8.350    0.133  213.400 
  744    7.735    2.475    2.989   33.387   26.642    8.350    0.133  210.000 
  751    7.881    2.475    2.990   33.389   26.644    8.350    0.134  209.000 
  776    8.207    2.477    2.990   33.389   26.644    8.350    0.141  202.900 
  791    8.378    2.480    2.990   33.390   26.644    8.349    0.142  197.200 
  797    8.470    2.482    2.991   33.394   26.647    8.348    0.143  196.000 
  803    8.583    2.486    2.991   33.395   26.648    8.347    0.144  192.000 
  807    8.688    2.491    2.992   33.398   26.649    8.346    0.145  189.400 
  810    8.756    2.494    2.992   33.398   26.650    8.345    0.145  188.700 
  813    8.861    2.496    2.992   33.400   26.651    8.345    0.145  186.400 
  816    8.942    2.497    2.993   33.400   26.651    8.344    0.145  184.100 
  822    9.162    2.499    2.993   33.402   26.652    8.343    0.146  183.200 
  828    9.425    2.500    2.993   33.403   26.653    8.342    0.148  176.500 
  832    9.602    2.500    2.993   33.404   26.654    8.341    0.151  175.200 
  836    9.784    2.502    2.994   33.405   26.654    8.341    0.158  172.900 
  839    9.940    2.504    2.994   33.406   26.655    8.341    0.160  170.300 
  842   10.072    2.506    2.994   33.407   26.656    8.341    0.160  167.200 
  845   10.222    2.506    2.994   33.407   26.656    8.341    0.160  161.900 
  852   10.597    2.507    2.994   33.407   26.656    8.341    0.163  150.200 
  857   10.850    2.508    2.994   33.408   26.656    8.341    0.163  140.500 
  860   10.978    2.508    2.994   33.408   26.656    8.341    0.163  134.600 
  863   11.146    2.508    2.994   33.408   26.656    8.341    0.164  130.800 
  866   11.285    2.508    2.994   33.408   26.656    8.341    0.166  128.100 
  869   11.443    2.508    2.994   33.408   26.656    8.341    0.167  124.800 
  872   11.557    2.508    2.994   33.408   26.656    8.341    0.169  121.900 
  876   11.738    2.508    2.994   33.408   26.656    8.341    0.169  119.300 
  882   12.009    2.508    2.994   33.408   26.656    8.342    0.170  114.900 
  885   12.131    2.508    2.994   33.408   26.656    8.342    0.170  113.000 
  890   12.319    2.508    2.994   33.408   26.656    8.343    0.170  111.000 
  893   12.430    2.508    2.994   33.408   26.656    8.343    0.171  110.200 
  900   12.648    2.508    2.994   33.408   26.656    8.343    0.171  106.200 
  906   12.821    2.508    2.994   33.408   26.656    8.343    0.172  105.700 
  915   13.058    2.508    2.994   33.408   26.656    8.343    0.172  104.900 
  924   13.263    2.508    2.994   33.408   26.656    8.343    0.173  104.800 
  933   13.456    2.508    2.994   33.408   26.656    8.343    0.174  104.500 
  942   13.654    2.508    2.994   33.408   26.656    8.343    0.175  104.500 
  953   13.973    2.509    2.994   33.408   26.656    8.343    0.177  104.500 
  961   14.237    2.509    2.994   33.408   26.656    8.342    0.181   98.540 
  965   14.355    2.509    2.994   33.408   26.656    8.342    0.184   94.720 
  977   14.797    2.515    2.995   33.412   26.659    8.340    0.193   88.830 
  981   14.996    2.515    2.995   33.412   26.659    8.340    0.196   87.530 
  984   15.120    2.516    2.996   33.412   26.659    8.340    0.198   86.460 
  987   15.246    2.516    2.996   33.413   26.660    8.339    0.199   85.500 
  995   15.575    2.517    2.996   33.413   26.660    8.339    0.202   83.830 
 1002   15.861    2.517    2.996   33.413   26.660    8.338    0.205   83.630 
 1009   16.143    2.518    2.996   33.414   26.660    8.338    0.207   82.300 
 1020   16.483    2.519    2.996   33.414   26.660    8.338    0.220   78.730 
 1033   16.882    2.519    2.996   33.415   26.661    8.338    0.220   69.320 
 1041   17.059    2.519    2.996   33.415   26.661    8.338    0.221   64.310 
 1047   17.203    2.520    2.996   33.415   26.661    8.337    0.222   61.370 
 1053   17.335    2.520    2.996   33.415   26.661    8.337    0.222   58.640 
 1061   17.493    2.520    2.996   33.415   26.661    8.336    0.222   56.300 
 1070   17.720    2.520    2.996   33.415   26.661    8.336    0.222   55.330 
 1074   17.828    2.520    2.996   33.416   26.662    8.336    0.223   55.130 
 1079   17.984    2.520    2.996   33.416   26.662    8.336    0.223   55.130 
 1086   18.234    2.521    2.996   33.416   26.662    8.336    0.224   54.860 
 1093   18.499    2.523    2.997   33.417   26.662    8.335    0.224   54.650 
 1098   18.721    2.524    2.997   33.417   26.662    8.335    0.224   54.380 
 1102   18.892    2.524    2.997   33.417   26.662    8.335    0.224   53.980 
 1109   19.251    2.524    2.997   33.418   26.663    8.335    0.224   52.540 
 1113   19.465    2.525    2.997   33.418   26.663    8.335    0.225   51.260 
 1117   19.659    2.525    2.997   33.418   26.663    8.335    0.225   49.770 
 1121   19.879    2.525    2.997   33.418   26.663    8.335    0.226   47.610 
 1130   20.332    2.525    2.997   33.418   26.663    8.335    0.229   44.500 
 1136   20.614    2.525    2.997   33.418   26.663    8.335    0.233   42.870 
 1143   20.943    2.525    2.997   33.418   26.663    8.336    0.239   42.500 
 1151   21.240    2.525    2.997   33.419   26.664    8.336    0.243   42.340 
 1155   21.375    2.526    2.997   33.419   26.664    8.337    0.244   42.290 
 1162   21.555    2.526    2.997   33.419   26.664    8.337    0.248   42.080 
 1178   21.913    2.526    2.997   33.419   26.664    8.338    0.249   41.170 
 1200   22.266    2.526    2.997   33.419   26.664    8.338    0.249   37.720 
 1215   22.595    2.526    2.997   33.419   26.664    8.338    0.252   35.900 
 1223   22.821    2.526    2.997   33.419   26.664    8.338    0.254   34.760 
 1232   23.112    2.526    2.997   33.419   26.664    8.339    0.254   33.920 
 1239   23.409    2.527    2.997   33.420   26.664    8.341    0.258   32.770 
 1247   23.732    2.529    2.998   33.422   26.666    8.341    0.260   31.730 
 1253   24.020    2.533    2.998   33.423   26.666    8.344    0.260   31.000 
 1257   24.187    2.534    2.998   33.423   26.666    8.345    0.260   30.390 
 1264   24.531    2.534    2.998   33.424   26.667    8.348    0.260   29.760 
 1271   24.849    2.536    2.999   33.425   26.667    8.348    0.260   28.580 
 1277   25.146    2.537    2.999   33.425   26.667    8.348    0.260   28.190 
 1280   25.281    2.537    2.999   33.425   26.667    8.348    0.260   27.510 
 1286   25.554    2.537    2.999   33.425   26.667    8.348    0.260   26.600 
 1291   25.772    2.538    2.999   33.425   26.667    8.348    0.260   25.610 
 1300   26.101    2.539    2.999   33.425   26.668    8.348    0.260   24.470 
 1307   26.400    2.539    2.999   33.426   26.668    8.348    0.260   23.380 
 1321   26.838    2.539    2.999   33.426   26.668    8.348    0.258   21.840 
 1359   27.588    2.558    3.002   33.436   26.675    8.348    0.255   20.490 
 1409   28.622    2.604    3.007   33.454   26.685    8.348    0.254   19.530 
 1420   29.067    2.611    3.008   33.459   26.688    8.346    0.251   18.450 
 1424   29.218    2.625    3.010   33.463   26.691    8.343    0.249   18.130 
 1430   29.562    2.638    3.011   33.468   26.693    8.340    0.246   17.300 
 1434   29.750    2.640    3.011   33.468   26.693    8.338    0.246   16.800 
 1440   30.112    2.641    3.011   33.468   26.693    8.337    0.246   16.090 
 1446   30.424    2.647    3.012   33.474   26.698    8.336    0.246   15.570 
 1454   30.926    2.695    3.018   33.495   26.709    8.319    0.245   14.740 
 1457   31.088    2.704    3.019   33.495   26.710    8.319    0.245   14.520 
 1460   31.270    2.704    3.019   33.496   26.710    8.319    0.245   14.270 
 1467   31.650    2.704    3.019   33.496   26.710    8.319    0.244   13.870 
 1470   31.817    2.704    3.019   33.496   26.710    8.319    0.244   13.760 
 1473   31.958    2.704    3.019   33.496   26.710    8.319    0.244   13.620 
 1478   32.214    2.708    3.019   33.496   26.710    8.319    0.243   13.350 
 1482   32.366    2.709    3.019   33.496   26.710    8.319    0.243   13.270 
 1486   32.544    2.709    3.020   33.496   26.710    8.319    0.243   13.130 
 1492   32.757    2.710    3.020   33.497   26.711    8.319    0.242   12.920 
 1564   33.860    2.710    3.020   33.498   26.711    8.319    0.233   11.460 
 1580   34.225    2.710    3.020   33.498   26.711    8.343    0.232   11.050 
 1590   34.597    2.710    3.020   33.498   26.711    8.345    0.231   10.620 
 1599   34.984    2.710    3.020   33.499   26.712    8.349    0.231   10.050 
 1604   35.172    2.710    3.020   33.500   26.713    8.349    0.231    9.705 
 1609   35.441    2.710    3.020   33.515   26.725    8.349    0.230    9.538 
 1623   36.057    2.710    3.022   33.523   26.731    8.349    0.229    8.849 
 1630   36.380    2.710    3.022   33.526   26.733    8.349    0.229    8.463 
 1634   36.563    2.711    3.023   33.528   26.734    8.349    0.227    8.411 
 1637   36.709    2.735    3.024   33.528   26.735    8.349    0.224    8.146 
 1644   36.974    2.739    3.025   33.535   26.738    8.349    0.218    8.006 
 1649   37.162    2.741    3.025   33.539   26.741    8.349    0.215    7.773 
 1658   37.493    2.745    3.025   33.544   26.745    8.345    0.209    7.556 
 1667   37.797    2.754    3.031   33.584   26.769    8.343    0.203    7.436 
 1679   38.171    2.853    3.039   33.585   26.769    8.314    0.193    7.363 
 1685   38.324    2.863    3.040   33.587   26.775    8.306    0.187    7.281 
 1692   38.547    2.880    3.043   33.596   26.776    8.302    0.183    7.263 
 1701   38.778    2.926    3.048   33.604   26.777    8.281    0.178    7.246 
 1711   39.134    2.936    3.048   33.607   26.779    8.258    0.172    7.246 
 1720   39.423    2.936    3.049   33.610   26.781    8.251    0.169    7.174 
 1729   39.763    2.942    3.049   33.611   26.781    8.240    0.168    7.043 
 1735   40.000    2.969    3.054   33.620   26.786    8.223    0.167    7.000 
 1739   40.128    2.988    3.054   33.627   26.790    8.223    0.165    6.940 
 1743   40.329    2.988    3.054   33.631   26.793    8.223    0.163    6.855 
 1747   40.498    2.996    3.055   33.636   26.797    8.220    0.162    6.679 
 1756   40.862    3.034    3.060   33.650   26.804    8.219    0.155    6.535 
 1766   41.251    3.043    3.061   33.652   26.805    8.219    0.149    6.350 
 1771   41.445    3.047    3.062   33.654   26.807    8.215    0.147    6.173 
 1776   41.629    3.056    3.063   33.658   26.809    8.213    0.146    6.030 
 1784   41.913    3.080    3.066   33.665   26.812    8.210    0.140    5.898 
 1804   42.422    3.093    3.068   33.675   26.819    8.210    0.134    5.579 
 1814   42.623    3.099    3.068   33.677   26.820    8.208    0.134    5.437 
 1832   42.930    3.106    3.069   33.681   26.823    8.207    0.134    5.227 
 1860   43.574    3.119    3.071   33.688   26.826    8.206    0.133    4.981 
 1868   43.871    3.128    3.072   33.688   26.827    8.202    0.133    4.944 
 1874   44.087    3.130    3.072   33.689   26.827    8.196    0.133    4.842 
 1881   44.384    3.135    3.072   33.689   26.827    8.191    0.133    4.771 
 1885   44.576    3.135    3.072   33.691   26.828    8.182    0.133    4.689 
 1889   44.794    3.138    3.073   33.695   26.831    8.176    0.132    4.666 
 1893   44.935    3.147    3.075   33.698   26.833    8.172    0.132    4.649 
 1896   45.074    3.155    3.075   33.701   26.834    8.166    0.132    4.631 
 1899   45.218    3.156    3.075   33.702   26.835    8.165    0.132    4.552 
 1902   45.359    3.161    3.076   33.704   26.836    8.163    0.132    4.541 
 1906   45.562    3.173    3.077   33.706   26.837    8.163    0.132    4.507 
 1911   45.767    3.176    3.077   33.707   26.837    8.162    0.132    4.463 
 1915   45.936    3.200    3.081   33.714   26.840    8.158    0.132    4.463 
 1918   46.077    3.210    3.081   33.715   26.840    8.158    0.132    4.436 
 1921   46.190    3.212    3.081   33.717   26.842    8.157    0.132    4.382 
 1925   46.359    3.218    3.082   33.719   26.843    8.157    0.132    4.322 
 1931   46.579    3.225    3.083   33.723   26.845    8.157    0.132    4.285 
 1935   46.737    3.235    3.084   33.726   26.847    8.157    0.131    4.243 
 1941   46.938    3.256    3.086   33.729   26.847    8.157    0.131    4.191 
 1949   47.210    3.267    3.087   33.731   26.848    8.157    0.130    4.171 
 1958   47.490    3.300    3.091   33.739   26.851    8.157    0.129    4.099 
 1963   47.616    3.301    3.092   33.745   26.856    8.155    0.129    4.059 
 1969   47.819    3.303    3.092   33.746   26.857    8.152    0.129    4.014 
 1978   48.086    3.308    3.093   33.751   26.860    8.151    0.124    3.946 
 1986   48.319    3.310    3.093   33.754   26.862    8.150    0.121    3.883 
 1997   48.631    3.315    3.093   33.755   26.863    8.149    0.119    3.845 
 2004   48.868    3.328    3.096   33.768   26.871    8.146    0.117    3.826 
 2011   49.089    3.354    3.098   33.772   26.872    8.142    0.113    3.760 
 2018   49.309    3.365    3.099   33.772   26.872    8.139    0.112    3.696 
 2022   49.478    3.369    3.100   33.773   26.872    8.138    0.111    3.660 
 2025   49.574    3.371    3.100   33.773   26.872    8.135    0.111    3.646 
 2031   49.822    3.372    3.100   33.774   26.872    8.126    0.110    3.584 
 2042   50.170    3.403    3.105   33.792   26.884    8.124    0.109    3.510 
 2046   50.309    3.433    3.108   33.797   26.885    8.119    0.109    3.479 
 2051   50.544    3.442    3.108   33.799   26.886    8.119    0.108    3.428 
 2056   50.705    3.443    3.109   33.801   26.887    8.115    0.106    3.416 
 2063   50.985    3.445    3.109   33.802   26.888    8.115    0.105    3.361 
 2068   51.186    3.445    3.109   33.806   26.891    8.115    0.105    3.320 
 2072   51.299    3.445    3.109   33.806   26.891    8.115    0.105    3.271 
 2081   51.626    3.451    3.109   33.810   26.894    8.115    0.105    3.219 
 2087   51.831    3.451    3.110   33.816   26.898    8.103    0.105    3.160 
 2092   51.973    3.484    3.115   33.833   26.905    8.102    0.104    3.149 
 2099   52.174    3.531    3.119   33.838   26.908    8.100    0.103    3.118 
 2111   52.473    3.570    3.123   33.838   26.909    8.099    0.099    3.061 
 2131   52.879    3.598    3.126   33.850   26.911    8.095    0.096    2.990 
 2143   53.148    3.624    3.129   33.860   26.917    8.095    0.093    2.946 
 2159   53.525    3.639    3.131   33.867   26.921    8.094    0.090    2.906 
 2164   53.696    3.640    3.131   33.870   26.923    8.093    0.088    2.878 
 2169   53.869    3.640    3.132   33.872   26.925    8.090    0.088    2.867 
 2179   54.243    3.645    3.133   33.880   26.931    8.086    0.088    2.842 
 2194   54.842    3.715    3.141   33.904   26.943    8.085    0.084    2.790 
 2201   55.139    3.720    3.141   33.904   26.943    8.081    0.081    2.746 
 2208   55.485    3.726    3.142   33.906   26.943    8.078    0.081    2.726 
 2213   55.718    3.728    3.142   33.908   26.945    8.075    0.081    2.679 
 2221   56.065    3.735    3.143   33.912   26.947    8.065    0.081    2.646 
 2233   56.550    3.768    3.146   33.915   26.947    8.029    0.080    2.607 
 2237   56.719    3.772    3.148   33.923   26.953    8.015    0.080    2.572 
 2247   57.065    3.838    3.155   33.944   26.963    7.984    0.077    2.531 
 2263   57.600    3.943    3.165   33.958   26.963    7.945    0.074    2.485 
 2280   58.132    3.954    3.167   33.968   26.970    7.928    0.072    2.455 
 2299   58.774    4.025    3.175   33.988   26.979    7.906    0.072    2.439 
 2320   59.511    4.032    3.177   33.996   26.984    7.906    0.072    2.410 
 2326   59.762    4.035    3.178   34.004   26.990    7.906    0.069    2.374 
 2331   59.937    4.038    3.178   34.005   26.991    7.906    0.067    2.368 
 2334   60.078    4.041    3.179   34.006   26.991    7.906    0.067    2.357 
 2350   60.705    4.042    3.179   34.017   27.000    7.905    0.066    2.299 
 2360   61.111    4.044    3.179   34.018   27.001    7.902    0.066    2.266 
 2367   61.316    4.045    3.179   34.019   27.001    7.901    0.066    2.241 
 2374   61.564    4.046    3.180   34.022   27.004    7.892    0.065    2.219 
 2379   61.740    4.049    3.180   34.023   27.004    7.890    0.065    2.199 
 2388   62.005    4.049    3.180   34.024   27.005    7.885    0.064    2.175 
 2401   62.366    4.050    3.181   34.026   27.006    7.881    0.063    2.149 
 2415   62.715    4.050    3.181   34.026   27.006    7.881    0.061    2.130 
 2424   62.948    4.053    3.181   34.029   27.008    7.881    0.060    2.117 
 2441   63.354    4.055    3.181   34.034   27.012    7.881    0.060    2.078 
 2457   63.730    4.099    3.187   34.053   27.023    7.881    0.060    2.065 
 2469   63.998    4.133    3.191   34.064   27.028    7.881    0.058    2.045 
 2481   64.312    4.159    3.194   34.068   27.028    7.865    0.058    2.035 
 2489   64.545    4.165    3.195   34.071   27.030    7.849    0.057    2.030 
 2496   64.753    4.176    3.196   34.072   27.030    7.836    0.057    2.025 
 2506   65.110    4.209    3.200   34.087   27.036    7.816    0.057    2.018 
 2515   65.454    4.232    3.202   34.087   27.038    7.801    0.057    2.018 
 2522   65.768    4.255    3.205   34.094   27.039    7.787    0.057    2.010 
 2529   66.098    4.274    3.206   34.100   27.041    7.767    0.056    2.008 
 2532   66.239    4.278    3.207   34.100   27.041    7.763    0.055    1.993 
 2535   66.380    4.289    3.208   34.102   27.042    7.755    0.054    1.986 
 2538   66.553    4.293    3.209   34.102   27.042    7.748    0.053    1.986 
 2547   67.039    4.299    3.209   34.104   27.042    7.742    0.051    1.976 
 2550   67.180    4.299    3.210   34.105   27.043    7.738    0.051    1.971 
 2553   67.368    4.299    3.210   34.106   27.044    7.734    0.051    1.964 
 2556   67.509    4.299    3.210   34.110   27.047    7.733    0.051    1.961 
 2560   67.792    4.299    3.210   34.116   27.052    7.733    0.051    1.952 
 2564   67.980    4.299    3.210   34.116   27.052    7.732    0.051    1.949 
 2571   68.388    4.299    3.210   34.117   27.053    7.732    0.051    1.942 
 2574   68.574    4.299    3.210   34.120   27.055    7.732    0.051    1.935 
 2578   68.780    4.299    3.210   34.120   27.055    7.732    0.051    1.925 
 2582   69.047    4.299    3.210   34.123   27.057    7.732    0.051    1.921 
 2587   69.325    4.299    3.210   34.124   27.058    7.732    0.051    1.904 
 2596   69.783    4.299    3.210   34.124   27.058    7.732    0.051    1.895 
 2606   70.238    4.294    3.210   34.125   27.060    7.732    0.051    1.874 
 2614   70.596    4.292    3.210   34.126   27.061    7.732    0.051    1.855 
 2624   70.908    4.273    3.209   34.126   27.062    7.732    0.051    1.844 
 2634   71.143    4.264    3.209   34.126   27.063    7.732    0.051    1.826 
 2649   71.368    4.261    3.209   34.127   27.065    7.733    0.052    1.810 
 2683   71.603    4.261    3.209   34.127   27.065    7.762    0.052    1.797 
 2713   71.971    4.261    3.209   34.127   27.065    7.763    0.052    1.788 
 2736   72.681    4.261    3.209   34.129   27.066    7.764    0.052    1.786 
 2740   72.874    4.261    3.209   34.129   27.066    7.764    0.052    1.779 
 2746   73.134    4.261    3.209   34.131   27.068    7.766    0.052    1.773 
 2750   73.370    4.261    3.209   34.134   27.070    7.769    0.052    1.768 
 2755   73.622    4.261    3.209   34.148   27.081    7.769    0.052    1.757 
 2760   73.919    4.261    3.209   34.154   27.086    7.769    0.052    1.755 
 2763   74.097    4.261    3.209   34.167   27.096    7.769    0.052    1.753 
 2768   74.392    4.261    3.212   34.172   27.100    7.770    0.052    1.744 
 2772   74.662    4.285    3.215   34.182   27.106    7.770    0.052    1.744 
 2776   74.912    4.302    3.217   34.184   27.106    7.769    0.051    1.742 
 2779   75.096    4.310    3.218   34.186   27.106    7.768    0.051    1.738 
 2783   75.368    4.322    3.219   34.188   27.107    7.768    0.051    1.732 
 2787   75.612    4.330    3.220   34.190   27.107    7.768    0.051    1.732 
 2790   75.808    4.359    3.224   34.206   27.117    7.766    0.051    1.732 
 2793   76.005    4.381    3.226   34.212   27.117    7.766    0.051    1.727 
 2796   76.210    4.391    3.228   34.213   27.118    7.765    0.051    1.725 
 2799   76.388    4.406    3.229   34.214   27.118    7.764    0.051    1.719 
 2802   76.572    4.412    3.229   34.214   27.118    7.764    0.050    1.717 
 2805   76.743    4.415    3.229   34.214   27.118    7.763    0.050    1.715 
 2813   77.145    4.415    3.229   34.216   27.118    7.763    0.050    1.702 
 2819   77.438    4.419    3.230   34.216   27.118    7.759    0.050    1.687 
 2823   77.569    4.423    3.230   34.216   27.119    7.755    0.050    1.685 
 2829   77.815    4.429    3.231   34.217   27.119    7.744    0.048    1.683 
 2841   78.198    4.431    3.231   34.217   27.119    7.724    0.046    1.675 
 2863   78.651    4.438    3.232   34.219   27.119    7.704    0.044    1.661 
 2877   78.946    4.468    3.236   34.231   27.125    7.689    0.044    1.654 
 2891   79.308    4.518    3.241   34.246   27.132    7.673    0.044    1.654 
 2900   79.554    4.535    3.243   34.249   27.132    7.668    0.043    1.652 
 2906   79.787    4.536    3.245   34.255   27.137    7.656    0.043    1.652 
 2912   80.001    4.536    3.245   34.257   27.138    7.650    0.043    1.650 
 2919   80.236    4.536    3.245   34.257   27.138    7.634    0.043    1.644 
 2928   80.551    4.536    3.245   34.258   27.139    7.617    0.043    1.638 
 2937   80.807    4.536    3.245   34.261   27.141    7.612    0.043    1.634 
 2950   81.272    4.536    3.245   34.261   27.141    7.611    0.042    1.628 
 2972   81.922    4.536    3.245   34.261   27.141    7.610    0.041    1.618 
 2975   82.008    4.536    3.245   34.261   27.141    7.604    0.041    1.616 
 2978   82.093    4.536    3.245   34.263   27.143    7.603    0.041    1.616 
 2981   82.187    4.536    3.245   34.266   27.146    7.595    0.041    1.612 
 2990   82.463    4.536    3.245   34.267   27.146    7.585    0.041    1.610 
 2997   82.690    4.536    3.245   34.267   27.146    7.579    0.041    1.608 
 3011   83.186    4.534    3.245   34.268   27.147    7.577    0.040    1.602 
 3014   83.319    4.534    3.245   34.268   27.147    7.568    0.040    1.602 
 3023   83.646    4.518    3.243   34.268   27.149    7.567    0.040    1.600 
 3032   84.048    4.471    3.241   34.268   27.154    7.564    0.040    1.600 
 3037   84.260    4.461    3.240   34.270   27.157    7.564    0.039    1.594 
 3042   84.455    4.461    3.240   34.270   27.157    7.561    0.039    1.594 
 3049   84.748    4.460    3.240   34.272   27.158    7.560    0.040    1.590 
 3058   85.120    4.458    3.240   34.288   27.171    7.546    0.040    1.590 
 3067   85.482    4.452    3.240   34.289   27.173    7.524    0.040    1.585 
 3073   85.702    4.452    3.239   34.289   27.173    7.513    0.040    1.583 
 3081   86.002    4.443    3.239   34.290   27.175    7.490    0.040    1.583 
 3089   86.323    4.441    3.239   34.291   27.176    7.465    0.040    1.577 
 3096   86.646    4.432    3.238   34.291   27.177    7.440    0.040    1.577 
 3102   86.826    4.429    3.238   34.292   27.178    7.420    0.040    1.575 
 3105   86.960    4.429    3.238   34.292   27.178    7.415    0.039    1.573 
 3110   87.155    4.426    3.238   34.293   27.179    7.407    0.039    1.571 
 3115   87.352    4.426    3.238   34.295   27.180    7.407    0.039    1.569 
 3120   87.564    4.426    3.238   34.299   27.184    7.407    0.038    1.569 
 3124   87.728    4.426    3.238   34.301   27.185    7.407    0.038    1.569 
 3128   87.846    4.423    3.238   34.301   27.186    7.407    0.038    1.563 
 3131   87.985    4.418    3.238   34.302   27.187    7.407    0.038    1.561 
 3142   88.357    4.391    3.236   34.308   27.195    7.407    0.037    1.561 
 3147   88.520    4.384    3.235   34.311   27.198    7.407    0.037    1.557 
 3152   88.693    4.377    3.235   34.312   27.199    7.407    0.036    1.554 
 3164   89.008    4.365    3.234   34.312   27.201    7.407    0.034    1.552 
 3174   89.211    4.341    3.232   34.314   27.205    7.407    0.033    1.550 
 3179   89.352    4.316    3.230   34.315   27.208    7.414    0.033    1.548 
 3186   89.526    4.283    3.227   34.315   27.212    7.418    0.032    1.548 
 3197   89.808    4.241    3.223   34.316   27.217    7.418    0.032    1.548 
 3202   89.966    4.226    3.222   34.317   27.219    7.418    0.032    1.548 
 3206   90.084    4.212    3.221   34.318   27.222    7.418    0.032    1.546 
 3213   90.287    4.178    3.217   34.318   27.225    7.418    0.032    1.546 
 3217   90.452    4.147    3.215   34.318   27.228    7.418    0.032    1.544 
 3223   90.672    4.134    3.215   34.318   27.230    7.418    0.032    1.544 
 3229   90.923    4.131    3.214   34.325   27.236    7.418    0.032    1.542 
 3232   91.058    4.130    3.214   34.325   27.236    7.418    0.031    1.542 
 3235   91.205    4.129    3.214   34.326   27.237    7.418    0.032    1.542 
 3242   91.550    4.128    3.214   34.326   27.237    7.418    0.032    1.542 
 3247   91.755    4.126    3.214   34.327   27.238    7.415    0.032    1.542 
 3254   92.115    4.123    3.214   34.327   27.238    7.408    0.032    1.540 
 3258   92.267    4.122    3.214   34.327   27.238    7.407    0.032    1.538 
 3264   92.564    4.122    3.214   34.333   27.243    7.395    0.031    1.538 
 3267   92.697    4.122    3.214   34.333   27.243    7.389    0.031    1.536 
 3270   92.823    4.122    3.214   34.333   27.243    7.386    0.030    1.535 
 3273   92.947    4.121    3.214   34.334   27.244    7.385    0.030    1.533 
 3278   93.135    4.121    3.214   34.338   27.247    7.385    0.030    1.529 
 3282   93.317    4.119    3.214   34.340   27.249    7.385    0.029    1.523 
 3287   93.497    4.116    3.214   34.340   27.249    7.385    0.029    1.523 
 3296   93.732    4.112    3.214   34.342   27.251    7.385    0.029    1.523 
 3303   93.921    4.110    3.214   34.343   27.252    7.383    0.029    1.521 
 3311   94.143    4.107    3.214   34.343   27.253    7.383    0.028    1.521 
 3315   94.246    4.105    3.214   34.343   27.253    7.381    0.028    1.521 
 3322   94.409    4.102    3.214   34.344   27.254    7.380    0.028    1.521 
 3326   94.535    4.100    3.213   34.344   27.254    7.380    0.028    1.521 
 3329   94.627    4.098    3.213   34.344   27.254    7.380    0.028    1.521 
 3332   94.723    4.097    3.213   34.345   27.255    7.380    0.028    1.521 
 3340   94.935    4.092    3.213   34.345   27.256    7.381    0.028    1.519 
 3353   95.397    4.057    3.210   34.345   27.259    7.382    0.027    1.519 
 3358   95.611    4.048    3.209   34.345   27.260    7.382    0.027    1.519 
 3362   95.774    4.042    3.208   34.346   27.262    7.382    0.027    1.518 
 3368   96.024    4.028    3.207   34.346   27.263    7.382    0.027    1.518 
 3374   96.294    4.019    3.206   34.346   27.264    7.382    0.027    1.518 
 3377   96.435    4.015    3.206   34.346   27.264    7.382    0.027    1.518 
 3389   96.934    3.998    3.205   34.347   27.267    7.382    0.027    1.518 
 3393   97.141    3.996    3.205   34.347   27.267    7.382    0.027    1.516 
 3400   97.422    3.994    3.205   34.348   27.268    7.379    0.027    1.512 
 3416   98.051    3.994    3.205   34.350   27.270    7.379    0.027    1.508 
 3423   98.295    3.991    3.205   34.354   27.273    7.379    0.026    1.506 
 3428   98.445    3.988    3.204   34.355   27.274    7.379    0.026    1.503 
 3436   98.678    3.987    3.204   34.355   27.275    7.379    0.026    1.503 
 3441   98.864    3.985    3.204   34.356   27.276    7.379    0.026    1.501 
 3448   99.040    3.979    3.204   34.356   27.276    7.380    0.026    1.501 
 3457   99.279    3.968    3.204   34.357   27.278    7.381    0.026    1.501 
 3463   99.448    3.952    3.204   34.362   27.284    7.381    0.026    1.501 
 3472   99.727    3.951    3.204   34.368   27.289    7.380    0.026    1.499 
 3479   99.926    3.950    3.204   34.374   27.293    7.379    0.026    1.499 
 3485  100.142    3.950    3.204   34.377   27.296    7.379    0.026    1.499 
 3497  100.585    3.949    3.204   34.391   27.307    7.376    0.026    1.497 
 3505  100.867    3.949    3.204   34.393   27.309    7.374    0.026    1.497 
 3510  101.120    3.949    3.204   34.393   27.309    7.374    0.026    1.497 
 3516  101.349    3.948    3.204   34.393   27.309    7.371    0.026    1.497 
 3522  101.601    3.948    3.204   34.393   27.309    7.371    0.025    1.495 
 3527  101.871    3.948    3.204   34.394   27.310    7.371    0.025    1.495 
 3534  102.181    3.948    3.204   34.396   27.311    7.371    0.023    1.495 
 3543  102.573    3.948    3.204   34.403   27.317    7.371    0.020    1.493 
 3549  102.841    3.949    3.204   34.404   27.317    7.371    0.020    1.493 
 3552  102.986    3.949    3.205   34.405   27.318    7.369    0.020    1.493 
 3556  103.174    3.949    3.205   34.409   27.321    7.369    0.019    1.488 
 3563  103.453    3.949    3.205   34.418   27.328    7.368    0.019    1.488 
 3573  103.894    3.949    3.205   34.422   27.332    7.367    0.018    1.482 
 3581  104.213    3.946    3.206   34.429   27.338    7.364    0.018    1.481 
 3596  104.730    3.942    3.206   34.442   27.348    7.342    0.017    1.481 
 3611  105.244    3.937    3.206   34.443   27.350    7.325    0.017    1.481 
 3621  105.561    3.936    3.206   34.443   27.350    7.320    0.017    1.481 
 3638  106.034    3.935    3.207   34.443   27.350    7.319    0.017    1.481 
 3666  106.772    3.930    3.207   34.447   27.354    7.319    0.017    1.481 
 3677  107.072    3.926    3.207   34.449   27.356    7.314    0.017    1.481 
 3689  107.432    3.922    3.207   34.451   27.358    7.314    0.017    1.481 
 3702  107.840    3.918    3.207   34.451   27.358    7.312    0.017    1.481 
 3712  108.202    3.910    3.207   34.457   27.364    7.312    0.017    1.479 
 3720  108.470    3.901    3.207   34.461   27.368    7.309    0.017    1.479 
 3725  108.671    3.901    3.207   34.462   27.369    7.308    0.017    1.479 
 3732  108.973    3.900    3.206   34.463   27.369    7.307    0.017    1.479 
 3737  109.223    3.900    3.206   34.463   27.369    7.306    0.017    1.479 
 3744  109.523    3.900    3.206   34.465   27.371    7.304    0.017    1.479 
 3755  110.039    3.887    3.206   34.465   27.372    7.303    0.017    1.479 
 3759  110.246    3.887    3.206   34.466   27.373    7.303    0.017    1.479 
 3767  110.668    3.887    3.206   34.476   27.381    7.303    0.018    1.479 
 3771  110.844    3.887    3.206   34.478   27.383    7.303    0.018    1.479 
 3774  111.013    3.887    3.206   34.478   27.383    7.303    0.018    1.479 
 3779  111.282    3.887    3.206   34.478   27.383    7.299    0.018    1.479 
 3782  111.422    3.887    3.206   34.478   27.383    7.299    0.018    1.479 
 3785  111.610    3.887    3.206   34.478   27.383    7.298    0.018    1.479 
 3788  111.753    3.887    3.207   34.482   27.386    7.297    0.018    1.477 
 3792  111.987    3.886    3.207   34.486   27.389    7.289    0.018    1.473 
 3798  112.301    3.883    3.207   34.487   27.390    7.288    0.018    1.473 
 3801  112.477    3.880    3.208   34.490   27.393    7.284    0.017    1.473 
 3805  112.648    3.880    3.208   34.492   27.395    7.281    0.017    1.472 
 3809  112.886    3.880    3.208   34.496   27.398    7.279    0.017    1.470 
 3812  113.025    3.880    3.208   34.501   27.402    7.278    0.017    1.470 
 3815  113.169    3.880    3.208   34.506   27.406    7.277    0.016    1.470 
 3819  113.374    3.880    3.208   34.509   27.408    7.275    0.016    1.468 
 3825  113.625    3.880    3.208   34.512   27.410    7.275    0.016    1.468 
 3831  113.875    3.880    3.208   34.514   27.412    7.274    0.015    1.466 
 3846  114.395    3.880    3.208   34.519   27.416    7.273    0.014    1.464 
 3854  114.629    3.880    3.208   34.521   27.418    7.269    0.014    1.461 
 3887  115.258    3.857    3.208   34.538   27.433    7.263    0.014    1.461 
 3911  115.682    3.847    3.208   34.542   27.438    7.261    0.013    1.461 
 3917  115.838    3.846    3.208   34.542   27.438    7.260    0.013    1.461 
 3925  116.076    3.845    3.208   34.543   27.439    7.258    0.013    1.461 
 3935  116.405    3.842    3.208   34.543   27.439    7.255    0.013    1.461 
 3941  116.581    3.839    3.208   34.543   27.439    7.255    0.013    1.461 
 3946  116.859    3.838    3.208   34.543   27.439    7.255    0.013    1.461 
 3954  117.221    3.838    3.208   34.543   27.439    7.254    0.012    1.461 
 3959  117.441    3.838    3.208   34.544   27.440    7.253    0.012    1.461 
 3962  117.598    3.838    3.208   34.544   27.440    7.253    0.011    1.461 
 3965  117.739    3.837    3.208   34.544   27.440    7.252    0.011    1.461 
 3968  117.897    3.836    3.208   34.544   27.440    7.251    0.011    1.459 
 3971  118.069    3.835    3.208   34.544   27.440    7.250    0.011    1.459 
 3981  118.606    3.832    3.208   34.545   27.442    7.250    0.011    1.459 
 3986  118.889    3.832    3.208   34.545   27.442    7.250    0.011    1.459 
 3992  119.186    3.830    3.208   34.545   27.442    7.250    0.011    1.459 
 3997  119.437    3.829    3.207   34.545   27.442    7.250    0.011    1.459 
 4003  119.750    3.827    3.207   34.546   27.443    7.249    0.011    1.459 
 4012  120.193    3.826    3.207   34.547   27.444    7.249    0.011    1.459 
 4018  120.475    3.824    3.207   34.548   27.445    7.247    0.011    1.457 
 4022  120.649    3.823    3.207   34.548   27.445    7.245    0.011    1.457 
 4031  121.041    3.813    3.207   34.552   27.449    7.245    0.011    1.457 
 4045  121.576    3.809    3.207   34.555   27.452    7.244    0.011    1.455 
 4058  122.002    3.805    3.206   34.556   27.453    7.243    0.010    1.455 
 4068  122.360    3.803    3.206   34.557   27.454    7.242    0.010    1.455 
 4075  122.565    3.802    3.206   34.557   27.454    7.239    0.010    1.455 
 4084  122.848    3.801    3.206   34.558   27.455    7.236    0.009    1.454 
 4090  123.083    3.799    3.206   34.558   27.455    7.234    0.009    1.452 
 4103  123.574    3.795    3.206   34.560   27.457    7.234    0.009    1.450 
 4113  123.916    3.790    3.206   34.562   27.459    7.233    0.009    1.450 
 4120  124.199    3.787    3.206   34.564   27.461    7.233    0.009    1.450 
 4128  124.529    3.784    3.205   34.565   27.462    7.233    0.009    1.448 
 4131  124.625    3.784    3.205   34.565   27.462    7.233    0.009    1.446 
 4137  124.876    3.783    3.205   34.565   27.462    7.232    0.009    1.446 
 4143  125.111    3.782    3.205   34.566   27.463    7.232    0.008    1.446 
 4146  125.207    3.781    3.205   34.567   27.464    7.232    0.008    1.446 
 4149  125.329    3.780    3.205   34.568   27.465    7.230    0.008    1.446 
 4153  125.505    3.780    3.205   34.569   27.466    7.230    0.008    1.446 
 4160  125.756    3.780    3.205   34.569   27.466    7.230    0.008    1.446 
 4167  125.991    3.780    3.205   34.569   27.466    7.230    0.008    1.446 
 4173  126.212    3.779    3.205   34.570   27.467    7.230    0.008    1.445 
 4176  126.304    3.779    3.205   34.570   27.467    7.230    0.008    1.445 
 4179  126.400    3.778    3.205   34.571   27.468    7.231    0.008    1.445 
 4183  126.557    3.776    3.205   34.574   27.470    7.231    0.008    1.445 
 4188  126.717    3.774    3.205   34.575   27.471    7.232    0.008    1.445 
 4195  126.966    3.771    3.205   34.576   27.472    7.233    0.008    1.445 
 4199  127.077    3.769    3.205   34.576   27.473    7.233    0.008    1.445 
 4202  127.186    3.769    3.205   34.576   27.473    7.233    0.007    1.445 
 4208  127.360    3.768    3.205   34.577   27.474    7.233    0.007    1.445 
 4213  127.548    3.768    3.205   34.577   27.474    7.233    0.007    1.445 
 4222  127.865    3.765    3.205   34.577   27.474    7.233    0.007    1.445 
 4226  128.004    3.763    3.205   34.577   27.474    7.233    0.007    1.445 
 4229  128.101    3.763    3.205   34.577   27.474    7.233    0.007    1.445 
 4235  128.364    3.763    3.205   34.577   27.474    7.232    0.007    1.446 
 4238  128.475    3.763    3.205   34.577   27.474    7.232    0.007    1.446 
 4241  128.617    3.763    3.205   34.578   27.475    7.232    0.007    1.446 
 4248  128.945    3.763    3.205   34.582   27.478    7.232    0.007    1.446 
 4254  129.184    3.763    3.205   34.583   27.479    7.232    0.007    1.446 
 4258  129.388    3.763    3.205   34.584   27.480    7.233    0.007    1.446 
 4261  129.546    3.763    3.205   34.585   27.480    7.233    0.007    1.446 
 4265  129.705    3.763    3.205   34.585   27.480    7.233    0.006    1.446 
 4271  130.033    3.763    3.206   34.586   27.481    7.232    0.006    1.446 
 4278  130.332    3.763    3.206   34.586   27.481    7.232    0.006    1.446 
 4281  130.504    3.763    3.206   34.586   27.481    7.232    0.006    1.446 
 4285  130.647    3.763    3.206   34.586   27.481    7.232    0.006    1.446 
 4290  130.913    3.763    3.206   34.587   27.482    7.232    0.006    1.446 
 4295  131.131    3.763    3.206   34.589   27.484    7.231    0.006    1.445 
 4303  131.478    3.763    3.206   34.591   27.485    7.231    0.006    1.445 
 4306  131.605    3.763    3.206   34.591   27.485    7.231    0.006    1.445 
 4309  131.729    3.763    3.206   34.591   27.485    7.231    0.006    1.445 
 4312  131.857    3.763    3.206   34.591   27.485    7.230    0.006    1.445 
 4315  131.982    3.763    3.206   34.592   27.486    7.230    0.006    1.445 
 4319  132.153    3.763    3.206   34.592   27.486    7.230    0.006    1.445 
 4323  132.311    3.763    3.206   34.592   27.486    7.230    0.006    1.445 
 4327  132.455    3.763    3.206   34.593   27.487    7.230    0.006    1.443 
 4331  132.594    3.763    3.206   34.593   27.487    7.230    0.006    1.443 
 4337  132.817    3.763    3.206   34.594   27.488    7.229    0.006    1.443 
 4346  133.132    3.763    3.206   34.595   27.488    7.229    0.006    1.443 
 4355  133.442    3.763    3.207   34.596   27.489    7.228    0.006    1.443 
 4362  133.633    3.763    3.207   34.597   27.490    7.228    0.006    1.443 
 4368  133.807    3.764    3.207   34.598   27.491    7.226    0.006    1.443 
 4373  133.952    3.765    3.207   34.600   27.492    7.225    0.006    1.443 
 4380  134.158    3.766    3.207   34.601   27.493    7.225    0.005    1.441 
 4387  134.342    3.766    3.207   34.601   27.493    7.223    0.005    1.441 
 4395  134.541    3.771    3.208   34.605   27.495    7.220    0.004    1.441 
 4403  134.781    3.774    3.209   34.608   27.498    7.220    0.004    1.441 
 4416  135.126    3.774    3.209   34.608   27.498    7.218    0.004    1.441 
 4434  135.612    3.775    3.209   34.608   27.498    7.216    0.004    1.441 
 4448  135.976    3.775    3.209   34.610   27.499    7.212    0.004    1.441 
 4458  136.261    3.775    3.209   34.610   27.499    7.211    0.004    1.441 
 4482  137.002    3.775    3.210   34.617   27.505    7.208    0.004    1.441 
 4487  137.203    3.775    3.210   34.618   27.505    7.208    0.004    1.441 
 4492  137.390    3.775    3.210   34.619   27.506    7.207    0.004    1.441 
 4505  137.895    3.775    3.210   34.621   27.508    7.199    0.004    1.441 
 4509  138.064    3.775    3.210   34.621   27.508    7.197    0.004    1.441 
 4513  138.244    3.775    3.210   34.622   27.509    7.197    0.004    1.441 
 4520  138.536    3.775    3.210   34.622   27.509    7.196    0.004    1.439 
 4530  138.949    3.775    3.210   34.622   27.509    7.196    0.004    1.439 
 4539  139.326    3.775    3.210   34.622   27.509    7.195    0.004    1.439 
 4545  139.562    3.774    3.210   34.623   27.510    7.195    0.004    1.439 
 4548  139.714    3.774    3.210   34.623   27.510    7.195    0.004    1.441 
 4552  139.844    3.772    3.210   34.623   27.510    7.192    0.004    1.441 
 4557  140.082    3.770    3.210   34.623   27.510    7.192    0.004    1.439 
 4564  140.393    3.770    3.210   34.623   27.510    7.191    0.005    1.441 
 4568  140.564    3.769    3.210   34.623   27.510    7.191    0.005    1.441 
 4573  140.804    3.769    3.210   34.623   27.510    7.191    0.005    1.439 
 4581  141.125    3.769    3.210   34.623   27.510    7.191    0.005    1.439 
 4588  141.477    3.766    3.209   34.623   27.510    7.191    0.005    1.439 
 4594  141.751    3.761    3.209   34.623   27.511    7.190    0.005    1.439 
 4597  141.886    3.760    3.209   34.623   27.511    7.190    0.005    1.439 
 4601  142.046    3.760    3.209   34.623   27.511    7.190    0.005    1.439 
 4610  142.458    3.759    3.209   34.623   27.511    7.190    0.005    1.439 
 4616  142.655    3.758    3.209   34.623   27.511    7.191    0.004    1.439 
 4623  142.961    3.757    3.209   34.623   27.511    7.191    0.004    1.439 
 4647  143.638    3.754    3.209   34.623   27.512    7.191    0.004    1.439 
 4694  144.525    3.754    3.209   34.626   27.514    7.191    0.004    1.439 
 4711  144.936    3.754    3.209   34.628   27.516    7.192    0.004    1.439 
 4722  145.236    3.754    3.209   34.630   27.517    7.192    0.003    1.439 
 4728  145.439    3.754    3.209   34.633   27.520    7.194    0.003    1.439 
 4737  145.754    3.754    3.209   34.634   27.520    7.197    0.003    1.439 
 4742  145.958    3.754    3.209   34.635   27.521    7.198    0.003    1.439 
 4752  146.384    3.754    3.209   34.640   27.525    7.204    0.002    1.439 
 4763  146.808    3.754    3.210   34.641   27.526    7.205    0.002    1.439 
 4772  147.185    3.754    3.210   34.641   27.526    7.207    0.002    1.439 
 4779  147.500    3.754    3.210   34.641   27.526    7.207    0.002    1.439 
 4789  147.927    3.761    3.211   34.643   27.527    7.207    0.001    1.439 
 4793  148.098    3.761    3.211   34.644   27.528    7.207    0.001    1.439 
 4803  148.537    3.763    3.211   34.646   27.529    7.207    0.001    1.437 
 4814  148.996    3.765    3.212   34.647   27.529    7.207    0.001    1.437 
 4820  149.233    3.766    3.212   34.647   27.529    7.207    0.001    1.437 
 4826  149.484    3.767    3.212   34.647   27.530    7.207    0.001    1.437 
 4839  149.964    3.787    3.215   34.656   27.534    7.207    0.001    1.437 
 4849  150.390    3.796    3.215   34.657   27.534    7.207    0.001    1.437 
 4854  150.570    3.796    3.215   34.657   27.535    7.207    0.001    1.437 
 4864  150.924    3.800    3.216   34.658   27.535    7.208    0.001    1.437 
 4876  151.354    3.804    3.216   34.659   27.535    7.208    0.001    1.437 
 4884  151.646    3.807    3.217   34.661   27.536    7.209    0.000    1.437 
 4891  151.892    3.811    3.217   34.661   27.536    7.209    0.000    1.437 
 4894  152.025    3.812    3.217   34.662   27.537    7.210    0.000    1.437 
 4900  152.199    3.816    3.218   34.664   27.538    7.210    0.000    1.437 
 4904  152.316    3.820    3.218   34.665   27.538    7.209    0.000    1.437 
 4907  152.449    3.821    3.218   34.665   27.538    7.210    0.000    1.437 
 4913  152.653    3.823    3.219   34.667   27.540    7.210    0.000    1.437 
 4920  152.899    3.832    3.220   34.670   27.541    7.210    0.000    1.437 
 4931  153.293    3.842    3.221   34.673   27.542    7.210    0.000    1.437 
 4939  153.536    3.847    3.221   34.674   27.543    7.210    0.000    1.437 
 4944  153.750    3.851    3.222   34.676   27.544    7.210   -0.001    1.437 
 4951  153.960    3.854    3.222   34.677   27.544    7.210   -0.001    1.437 
 4961  154.300    3.854    3.222   34.677   27.544    7.210   -0.001    1.437 
 4970  154.590    3.855    3.222   34.678   27.545    7.210   -0.001    1.437 
 4980  154.943    3.855    3.223   34.678   27.545    7.210   -0.001    1.437 
 5003  155.749    3.858    3.223   34.681   27.547    7.210   -0.001    1.437 
 5015  156.180    3.870    3.224   34.685   27.549    7.210   -0.001    1.437 
 5022  156.462    3.871    3.225   34.687   27.551    7.210   -0.001    1.437 
 5025  156.557    3.878    3.226   34.690   27.552    7.210   -0.001    1.437 
 5028  156.709    3.883    3.226   34.691   27.552    7.210   -0.001    1.437 
 5032  156.831    3.885    3.226   34.691   27.553    7.206   -0.001    1.437 
 5043  157.322    3.897    3.228   34.695   27.554    7.206   -0.001    1.437 
 5048  157.540    3.898    3.228   34.695   27.554    7.204   -0.001    1.439 
 5053  157.823    3.899    3.228   34.695   27.554    7.203    0.000    1.439 
 5057  157.975    3.900    3.228   34.695   27.554    7.203    0.000    1.437 
 5063  158.271    3.900    3.228   34.695   27.554    7.202    0.000    1.439 
 5069  158.539    3.901    3.228   34.696   27.554    7.201    0.000    1.439 
 5072  158.665    3.902    3.228   34.696   27.555    7.201    0.000    1.439 
 5075  158.822    3.902    3.228   34.696   27.555    7.201    0.000    1.439 
 5079  158.989    3.903    3.229   34.696   27.555    7.201    0.000    1.439 
 5087  159.359    3.904    3.229   34.697   27.555    7.200    0.000    1.439 
 5090  159.516    3.906    3.229   34.699   27.557    7.199    0.000    1.439 
 5093  159.642    3.913    3.230   34.702   27.558    7.199    0.000    1.439 
 5096  159.754    3.918    3.230   34.703   27.558    7.199    0.000    1.439 
 5101  159.985    3.928    3.232   34.708   27.561    7.199    0.000    1.439 
 5106  160.193    3.939    3.233   34.709   27.562    7.199    0.000    1.437 
 5112  160.431    3.946    3.234   34.711   27.562    7.199    0.000    1.437 
 5118  160.660    3.950    3.234   34.711   27.562    7.199    0.000    1.439 
 5124  160.862    3.950    3.234   34.711   27.562    7.199    0.000    1.439 
 5131  161.138    3.950    3.234   34.711   27.562    7.199    0.000    1.437 
 5139  161.395    3.950    3.234   34.711   27.562    7.199   -0.001    1.439 
 5144  161.547    3.950    3.234   34.711   27.562    7.199   -0.001    1.439 
 5151  161.809    3.950    3.234   34.711   27.562    7.204   -0.001    1.439 
 5159  162.040    3.950    3.234   34.711   27.562    7.204   -0.001    1.439 
 5164  162.195    3.950    3.234   34.711   27.562    7.204   -0.001    1.439 
 5173  162.482    3.950    3.234   34.711   27.562    7.204   -0.001    1.439 
 5177  162.634    3.950    3.234   34.712   27.562    7.204   -0.001    1.439 
 5180  162.765    3.950    3.234   34.712   27.562    7.205   -0.001    1.439 
 5185  162.953    3.950    3.234   34.712   27.562    7.205   -0.001    1.439 
 5189  163.106    3.950    3.234   34.712   27.562    7.205   -0.001    1.439 
 5193  163.264    3.950    3.234   34.712   27.562    7.205   -0.001    1.439 
 5198  163.453    3.950    3.234   34.712   27.562    7.205    0.000    1.439 
 5201  163.551    3.950    3.234   34.712   27.562    7.205    0.000    1.439 
 5204  163.706    3.950    3.234   34.712   27.562    7.205    0.000    1.439 
 5207  163.830    3.950    3.234   34.712   27.562    7.204    0.000    1.439 
 5212  164.034    3.952    3.234   34.712   27.562    7.204    0.000    1.439 
 5218  164.261    3.954    3.235   34.713   27.563    7.203    0.001    1.439 
 5222  164.445    3.962    3.236   34.718   27.565    7.202    0.002    1.439 
 5226  164.602    3.967    3.236   34.718   27.566    7.202    0.002    1.439 
 5230  164.797    3.967    3.236   34.721   27.567    7.202    0.003    1.439 
 5237  165.105    3.977    3.237   34.721   27.567    7.201    0.003    1.439 
 5240  165.253    3.977    3.237   34.721   27.568    7.200    0.003    1.439 
 5244  165.435    3.984    3.238   34.723   27.568    7.198    0.003    1.439 
 5248  165.615    3.987    3.239   34.725   27.569    7.197    0.003    1.439 
 5251  165.750    3.989    3.239   34.725   27.569    7.194    0.003    1.439 
 5254  165.883    3.995    3.240   34.728   27.570    7.194    0.003    1.439 
 5257  166.003    3.998    3.240   34.728   27.570    7.192    0.003    1.437 
 5261  166.196    3.999    3.240   34.729   27.571    7.192    0.003    1.437 
 5265  166.383    4.001    3.240   34.729   27.571    7.192    0.003    1.437 
 5268  166.511    4.004    3.241   34.730   27.571    7.190    0.003    1.437 
 5271  166.634    4.005    3.241   34.731   27.571    7.190    0.002    1.437 
 5277  166.889    4.007    3.241   34.731   27.571    7.190    0.001    1.437 
 5282  167.127    4.008    3.241   34.731   27.572    7.189    0.000    1.437 
 5286  167.296    4.009    3.241   34.731   27.572    7.189    0.000    1.437 
 5289  167.412    4.010    3.241   34.732   27.572    7.188    0.000    1.437 
 5293  167.564    4.011    3.242   34.732   27.572    7.188    0.000    1.437 
 5299  167.767    4.011    3.242   34.732   27.572    7.188    0.000    1.437 
 5304  167.943    4.011    3.242   34.732   27.572    7.187    0.000    1.437 
 5308  168.087    4.013    3.242   34.733   27.573    7.187    0.000    1.437 
 5314  168.256    4.015    3.242   34.734   27.573    7.186    0.000    1.437 
 5318  168.385    4.017    3.242   34.736   27.574    7.185    0.000    1.437 
 5326  168.618    4.019    3.243   34.736   27.574    7.185   -0.001    1.437 
 5336  168.889    4.021    3.243   34.736   27.574    7.184   -0.001    1.439 
 5342  169.092    4.021    3.243   34.736   27.574    7.184   -0.001    1.439 
 5348  169.221    4.021    3.243   34.736   27.574    7.184   -0.001    1.439 
 5352  169.377    4.021    3.243   34.737   27.575    7.184   -0.001    1.439 
 5357  169.521    4.022    3.243   34.737   27.575    7.184   -0.001    1.439 
 5364  169.757    4.022    3.243   34.738   27.575    7.184   -0.001    1.439 
 5373  170.102    4.022    3.243   34.738   27.575    7.183   -0.001    1.439 
 5379  170.325    4.024    3.243   34.738   27.576    7.182   -0.001    1.439 
 5382  170.462    4.024    3.243   34.738   27.576    7.182   -0.001    1.439 
 5389  170.779    4.026    3.244   34.739   27.576    7.181   -0.001    1.439 
 5395  171.075    4.027    3.244   34.739   27.576    7.180   -0.001    1.439 
 5401  171.362    4.027    3.244   34.739   27.576    7.179   -0.001    1.439 
 5404  171.519    4.028    3.244   34.739   27.576    7.179    0.000    1.439 
 5407  171.662    4.028    3.244   34.739   27.576    7.179    0.000    1.439 
 5410  171.834    4.028    3.244   34.739   27.576    7.179    0.000    1.439 
 5414  172.037    4.028    3.244   34.740   27.576    7.179    0.000    1.439 
 5421  172.432    4.029    3.244   34.740   27.576    7.179    0.000    1.439 
 5425  172.667    4.030    3.244   34.740   27.576    7.179    0.000    1.439 
 5428  172.858    4.030    3.244   34.740   27.576    7.179    0.000    1.439 
 5431  173.032    4.030    3.244   34.740   27.576    7.179    0.000    1.439 
 5436  173.317    4.031    3.244   34.740   27.576    7.179    0.000    1.439 
 5439  173.488    4.031    3.244   34.740   27.576    7.179    0.000    1.439 
 5443  173.677    4.031    3.244   34.740   27.576    7.179    0.000    1.439 
 5447  173.915    4.031    3.244   34.740   27.576    7.179    0.000    1.439 
 5450  174.071    4.031    3.244   34.740   27.577    7.180    0.000    1.439 
 5455  174.324    4.032    3.244   34.741   27.577    7.181    0.001    1.439 
 5460  174.575    4.032    3.244   34.741   27.577    7.181    0.001    1.439 
 5464  174.747    4.032    3.244   34.741   27.577    7.182    0.001    1.439 
 5468  174.905    4.032    3.244   34.741   27.577    7.182    0.001    1.439 
 5471  175.047    4.032    3.244   34.741   27.577    7.183    0.001    1.439 
 5475  175.205    4.032    3.244   34.741   27.577    7.183    0.001    1.439 
 5482  175.456    4.032    3.245   34.741   27.577    7.183    0.001    1.439 
 5492  175.769    4.032    3.245   34.741   27.577    7.183    0.001    1.439 
 5505  176.213    4.032    3.245   34.741   27.577    7.184    0.001    1.439 
 5510  176.374    4.032    3.245   34.741   27.577    7.184    0.001    1.439 
 5513  176.483    4.033    3.245   34.741   27.577    7.184    0.001    1.439 
 5516  176.592    4.033    3.245   34.741   27.577    7.186    0.001    1.439 
 5519  176.704    4.033    3.245   34.741   27.577    7.186    0.001    1.439 
 5523  176.856    4.033    3.245   34.741   27.577    7.186    0.000    1.439 
 5532  177.223    4.034    3.245   34.742   27.577    7.186    0.000    1.439 
 5546  177.791    4.035    3.245   34.742   27.577    7.185    0.000    1.439 
 5551  177.994    4.035    3.245   34.742   27.578    7.184    0.000    1.439 
 5560  178.419    4.038    3.245   34.743   27.578    7.185    0.000    1.439 
 5564  178.595    4.043    3.246   34.745   27.578    7.185    0.000    1.439 
 5569  178.813    4.048    3.246   34.745   27.579    7.186    0.000    1.439 
 5578  179.208    4.048    3.246   34.746   27.579    7.186    0.000    1.439 
 5587  179.615    4.049    3.247   34.746   27.579    7.186    0.000    1.439 
 5593  179.808    4.050    3.247   34.746   27.579    7.187   -0.001    1.439 
 5601  180.119    4.050    3.247   34.746   27.579    7.187   -0.001    1.439 
 5609  180.389    4.051    3.247   34.746   27.579    7.188   -0.001    1.439 
 5621  180.816    4.051    3.247   34.747   27.579    7.191   -0.001    1.441 
 5628  181.049    4.053    3.247   34.747   27.580    7.191   -0.001    1.441 
 5645  181.649    4.060    3.248   34.750   27.581    7.192   -0.001    1.439 
 5654  181.982    4.066    3.249   34.751   27.581    7.192   -0.001    1.441 
 5666  182.451    4.072    3.249   34.751   27.581    7.194   -0.001    1.441 
 5671  182.674    4.072    3.249   34.752   27.581    7.195   -0.001    1.441 
 5680  183.067    4.073    3.250   34.753   27.582    7.195   -0.001    1.441 
 5690  183.540    4.074    3.250   34.753   27.582    7.196   -0.001    1.441 
 5693  183.697    4.074    3.250   34.753   27.582    7.197   -0.001    1.441 
 5696  183.841    4.074    3.250   34.753   27.582    7.198   -0.001    1.441 
 5703  184.218    4.074    3.250   34.753   27.582    7.198   -0.001    1.441 
 5708  184.501    4.075    3.250   34.753   27.582    7.198   -0.001    1.441 
 5711  184.675    4.075    3.250   34.753   27.582    7.199   -0.001    1.441 
 5715  184.880    4.075    3.250   34.753   27.582    7.199   -0.001    1.441 
 5721  185.243    4.075    3.250   34.753   27.582    7.199   -0.001    1.441 
 5724  185.446    4.076    3.250   34.754   27.582    7.199   -0.001    1.441 
 5730  185.777    4.077    3.250   34.754   27.582    7.199   -0.001    1.441 
 5736  186.173    4.078    3.250   34.754   27.582    7.198   -0.001    1.441 
 5739  186.345    4.078    3.250   34.754   27.583    7.198   -0.001    1.441 
 5742  186.534    4.079    3.250   34.754   27.583    7.198   -0.001    1.441 
 5745  186.707    4.082    3.251   34.759   27.585    7.197   -0.001    1.441 
 5748  186.866    4.089    3.252   34.759   27.585    7.196   -0.001    1.441 
 5754  187.211    4.098    3.253   34.760   27.585    7.195   -0.001    1.441 
 5762  187.638    4.105    3.253   34.761   27.585    7.195   -0.001    1.441 
 5769  188.000    4.109    3.254   34.762   27.586    7.192   -0.001    1.441 
 5772  188.142    4.110    3.254   34.762   27.586    7.189   -0.001    1.441 
 5776  188.298    4.114    3.254   34.764   27.587    7.189   -0.001    1.441 
 5781  188.534    4.120    3.255   34.765   27.587    7.189   -0.001    1.441 
 5794  189.042    4.127    3.256   34.766   27.587    7.188   -0.001    1.441 
 5809  189.542    4.129    3.256   34.766   27.587    7.188   -0.001    1.441 
 5815  189.733    4.130    3.256   34.767   27.587    7.188   -0.001    1.441 
 5828  190.112    4.136    3.257   34.768   27.587    7.187   -0.001    1.441 
 5839  190.425    4.138    3.257   34.768   27.587    7.183   -0.001    1.441 
 5852  190.788    4.143    3.257   34.769   27.588    7.183   -0.001    1.441 
 5859  191.023    4.145    3.258   34.770   27.588    7.182   -0.001    1.441 
 5867  191.277    4.146    3.258   34.770   27.588    7.182   -0.001    1.441 
 5878  191.688    4.148    3.258   34.771   27.589    7.181   -0.001    1.441 
 5884  191.971    4.149    3.258   34.772   27.589    7.181   -0.001    1.441 
 5890  192.207    4.152    3.259   34.773   27.590    7.180   -0.002    1.441 
 5895  192.460    4.153    3.259   34.773   27.590    7.180   -0.002    1.441 
 5909  193.089    4.161    3.260   34.775   27.590    7.177   -0.002    1.441 
 5919  193.562    4.163    3.260   34.775   27.590    7.177   -0.002    1.441 
 5927  193.957    4.164    3.260   34.776   27.591    7.177   -0.002    1.441 
 5932  194.197    4.164    3.260   34.776   27.591    7.176   -0.002    1.441 
 5937  194.429    4.165    3.260   34.776   27.591    7.176   -0.003    1.443 
 5944  194.774    4.168    3.261   34.777   27.591    7.176   -0.003    1.441 
 5948  194.982    4.169    3.261   34.777   27.591    7.176   -0.003    1.441 
 5955  195.340    4.170    3.261   34.777   27.591    7.176   -0.003    1.441 
 5960  195.563    4.170    3.261   34.777   27.591    7.175   -0.003    1.441 
 5964  195.752    4.171    3.261   34.777   27.591    7.175   -0.002    1.441 
 5969  196.005    4.172    3.261   34.778   27.591    7.175   -0.002    1.441 
 5977  196.417    4.175    3.261   34.778   27.591    7.175   -0.002    1.441 
 5985  196.824    4.177    3.262   34.778   27.592    7.175   -0.002    1.441 
 5988  196.983    4.177    3.262   34.779   27.592    7.174   -0.002    1.441 
 5993  197.264    4.181    3.262   34.780   27.592    7.174   -0.002    1.443 
 5998  197.549    4.183    3.262   34.781   27.593    7.173   -0.002    1.443 
 6003  197.834    4.184    3.262   34.781   27.593    7.173   -0.002    1.443 
 6008  198.118    4.185    3.263   34.781   27.593    7.172    0.000    1.443 
 6011  198.308    4.186    3.263   34.782   27.593    7.172    0.001    1.443 
 6014  198.465    4.186    3.263   34.782   27.593    7.172    0.001    1.443 
 6017  198.652    4.186    3.263   34.782   27.593    7.172    0.001    1.443 
 6020  198.827    4.186    3.263   34.782   27.593    7.172    0.001    1.443 
 6023  198.986    4.187    3.263   34.782   27.593    7.172    0.001    1.443 
 6029  199.334    4.187    3.263   34.782   27.593    7.172    0.001    1.443 
 6035  199.630    4.187    3.263   34.782   27.593    7.172    0.001    1.443 
 6038  199.773    4.187    3.263   34.782   27.593    7.172    0.001    1.443 
 6041  199.915    4.187    3.263   34.783   27.594    7.172    0.001    1.443 
 6045  200.071    4.188    3.263   34.783   27.594    7.172    0.001    1.443 
 6049  200.247    4.188    3.263   34.783   27.594    7.172    0.001    1.443 
 6053  200.415    4.188    3.263   34.783   27.594    7.172    0.001    1.443 
 6057  200.545    4.188    3.263   34.783   27.594    7.172    0.001    1.443 
 6060  200.642    4.188    3.263   34.783   27.594    7.172    0.001    1.443 
 6063  200.730    4.188    3.263   34.783   27.594    7.172    0.001    1.443 
 6066  200.816    4.188    3.263   34.783   27.594    7.172    0.000    1.445 
 6070  200.921    4.188    3.263   34.784   27.594    7.172    0.000    1.443 
 6075  201.082    4.188    3.263   34.784   27.594    7.172    0.000    1.445 
 6081  201.204    4.188    3.263   34.784   27.595    7.172    0.000    1.445 
 6090  201.382    4.189    3.263   34.784   27.595    7.172    0.000    1.445 
 6100  201.648    4.192    3.264   34.784   27.595    7.172    0.000    1.445 
 6104  201.729    4.192    3.264   34.785   27.595    7.172    0.000    1.445 
 6109  201.839    4.196    3.264   34.785   27.595    7.172    0.000    1.445 
 6114  201.980    4.198    3.264   34.786   27.595    7.172    0.000    1.445 
 6120  202.186    4.198    3.264   34.786   27.595    7.172    0.000    1.445 
 6125  202.343    4.199    3.264   34.786   27.595    7.172    0.000    1.445 
 6128  202.465    4.199    3.264   34.786   27.595    7.172    0.000    1.445 
 6131  202.579    4.199    3.264   34.786   27.595    7.173    0.000    1.445 
 6138  202.896    4.199    3.264   34.786   27.595    7.173    0.000    1.445 
 6141  203.038    4.199    3.264   34.786   27.595    7.173   -0.001    1.445 
 6144  203.192    4.199    3.264   34.786   27.595    7.174   -0.001    1.445 
 6147  203.336    4.199    3.265   34.786   27.595    7.175   -0.001    1.445 
 6150  203.510    4.199    3.265   34.786   27.595    7.175   -0.001    1.445 
 6154  203.741    4.201    3.265   34.787   27.595    7.175   -0.001    1.445 
 6158  203.937    4.202    3.265   34.787   27.595    7.175   -0.001    1.445 
 6161  204.125    4.203    3.265   34.787   27.595    7.175   -0.001    1.443 
 6164  204.295    4.203    3.265   34.787   27.596    7.175   -0.001    1.443 
 6167  204.456    4.203    3.265   34.787   27.596    7.175   -0.001    1.443 
 6172  204.784    4.203    3.265   34.788   27.596    7.173   -0.002    1.443 
 6175  204.945    4.204    3.265   34.788   27.596    7.173   -0.002    1.443 
 6178  205.149    4.205    3.265   34.789   27.597    7.173   -0.002    1.443 
 6181  205.310    4.206    3.265   34.789   27.597    7.173   -0.003    1.443 
 6184  205.492    4.207    3.266   34.790   27.597    7.173   -0.003    1.443 
 6187  205.672    4.211    3.266   34.791   27.598    7.174   -0.004    1.443 
 6190  205.854    4.213    3.266   34.792   27.598    7.174   -0.004    1.445 
 6193  206.020    4.215    3.267   34.792   27.598    7.174   -0.004    1.445 
 6196  206.185    4.216    3.267   34.792   27.598    7.174   -0.004    1.445 
 6199  206.335    4.217    3.267   34.792   27.598    7.174   -0.004    1.445 
 6205  206.629    4.218    3.267   34.792   27.598    7.173   -0.004    1.445 
 6209  206.835    4.218    3.267   34.792   27.598    7.173   -0.004    1.445 
 6214  207.058    4.218    3.267   34.792   27.598    7.172   -0.004    1.445 
 6217  207.197    4.218    3.267   34.792   27.598    7.172   -0.004    1.445 
 6220  207.305    4.219    3.267   34.792   27.598    7.172   -0.004    1.445 
 6223  207.438    4.219    3.267   34.792   27.598    7.171   -0.004    1.445 
 6226  207.543    4.219    3.267   34.792   27.598    7.171   -0.004    1.445 
 6229  207.667    4.219    3.267   34.792   27.598    7.170   -0.004    1.445 
 6232  207.768    4.220    3.267   34.793   27.598    7.170   -0.004    1.445 
 6236  207.927    4.220    3.267   34.793   27.598    7.170   -0.004    1.445 
 6242  208.148    4.222    3.267   34.793   27.598    7.170   -0.004    1.445 
 6250  208.433    4.225    3.268   34.795   27.599    7.169   -0.004    1.445 
 6254  208.598    4.230    3.268   34.796   27.600    7.167   -0.004    1.445 
 6257  208.710    4.232    3.269   34.797   27.600    7.165   -0.004    1.446 
 6263  208.967    4.233    3.269   34.797   27.600    7.165   -0.004    1.445 
 6267  209.111    4.233    3.269   34.797   27.600    7.163   -0.004    1.445 
 6270  209.246    4.233    3.269   34.797   27.600    7.163   -0.004    1.445 
 6273  209.373    4.233    3.269   34.797   27.600    7.161   -0.004    1.446 
 6279  209.626    4.234    3.269   34.797   27.600    7.161   -0.004    1.446 
 6283  209.832    4.234    3.269   34.797   27.600    7.160   -0.004    1.446 
 6286  209.956    4.234    3.269   34.797   27.600    7.160   -0.004    1.445 
 6289  210.096    4.234    3.269   34.798   27.601    7.160   -0.004    1.445 
 6292  210.240    4.234    3.269   34.798   27.601    7.160   -0.004    1.445 
 6295  210.366    4.234    3.269   34.798   27.601    7.160   -0.004    1.446 
 6298  210.514    4.235    3.269   34.798   27.601    7.160   -0.004    1.446 
 6301  210.636    4.235    3.269   34.798   27.601    7.160   -0.004    1.446 
 6304  210.778    4.236    3.269   34.799   27.601    7.160   -0.004    1.446 
 6307  210.920    4.238    3.270   34.799   27.601    7.159   -0.004    1.446 
 6311  211.108    4.238    3.270   34.799   27.601    7.159   -0.004    1.446 
 6317  211.359    4.238    3.270   34.800   27.602    7.159   -0.004    1.446 
 6324  211.660    4.238    3.270   34.800   27.602    7.159   -0.004    1.445 
 6331  211.943    4.238    3.270   34.800   27.602    7.159   -0.004    1.445 
 6334  212.037    4.238    3.270   34.800   27.602    7.159   -0.004    1.445 
 6341  212.308    4.238    3.270   34.800   27.602    7.159   -0.004    1.445 
 6353  212.718    4.238    3.270   34.800   27.602    7.157   -0.004    1.445 
 6360  212.945    4.238    3.270   34.800   27.602    7.157   -0.004    1.445 
 6367  213.196    4.238    3.270   34.800   27.602    7.156   -0.004    1.446 
 6377  213.561    4.238    3.270   34.800   27.602    7.155   -0.004    1.446 
 6382  213.750    4.238    3.270   34.800   27.602    7.155   -0.004    1.446 
 6388  213.994    4.237    3.270   34.800   27.602    7.154   -0.004    1.446 
 6394  214.222    4.237    3.270   34.800   27.602    7.153   -0.004    1.446 
 6401  214.586    4.236    3.270   34.800   27.602    7.153   -0.004    1.446 
 6406  214.745    4.235    3.270   34.801   27.603    7.153   -0.004    1.446 
 6410  214.958    4.235    3.269   34.801   27.603    7.153   -0.004    1.446 
 6415  215.164    4.235    3.269   34.801   27.603    7.153   -0.004    1.446 
 6418  215.305    4.235    3.269   34.801   27.603    7.153   -0.004    1.446 
 6421  215.423    4.235    3.269   34.801   27.603    7.153   -0.003    1.446 
 6427  215.651    4.234    3.269   34.801   27.603    7.153   -0.003    1.446 
 6439  216.116    4.234    3.269   34.801   27.603    7.153   -0.003    1.446 
 6446  216.370    4.234    3.269   34.801   27.603    7.153   -0.003    1.446 
 6452  216.573    4.233    3.269   34.802   27.604    7.153   -0.003    1.446 
 6461  216.850    4.232    3.269   34.802   27.604    7.153   -0.004    1.448 
 6468  217.095    4.230    3.269   34.802   27.604    7.154   -0.004    1.448 
 6478  217.419    4.230    3.269   34.802   27.604    7.154   -0.004    1.448 
 6484  217.648    4.227    3.269   34.802   27.605    7.155   -0.004    1.448 
 6489  217.882    4.226    3.269   34.802   27.605    7.155   -0.004    1.448 
 6495  218.120    4.225    3.269   34.802   27.605    7.155   -0.004    1.448 
 6498  218.288    4.225    3.269   34.802   27.605    7.155   -0.004    1.448 
 6502  218.509    4.224    3.269   34.802   27.605    7.155   -0.005    1.448 
 6511  218.942    4.218    3.268   34.802   27.606    7.155   -0.005    1.448 
 6520  219.494    4.217    3.268   34.802   27.606    7.155   -0.005    1.448 
 6524  219.708    4.217    3.268   34.802   27.606    7.155   -0.005    1.448 
 6527  219.874    4.217    3.268   34.802   27.606    7.155   -0.005    1.448 
 6530  220.071    4.217    3.268   34.802   27.606    7.155   -0.005    1.448 
 6534  220.298    4.216    3.268   34.802   27.606    7.155   -0.005    1.448 
 6539  220.584    4.216    3.268   34.802   27.606    7.154   -0.005    1.448 
 6543  220.773    4.216    3.268   34.802   27.606    7.152   -0.005    1.448 
 6546  220.914    4.216    3.268   34.802   27.606    7.152   -0.005    1.448 
 6550  221.064    4.216    3.268   34.802   27.606    7.152   -0.005    1.448 
 6555  221.324    4.216    3.268   34.802   27.606    7.152   -0.005    1.448 
 6559  221.491    4.216    3.268   34.802   27.606    7.151   -0.005    1.448 
 6563  221.639    4.216    3.268   34.802   27.606    7.150   -0.005    1.448 
 6569  221.869    4.216    3.268   34.802   27.606    7.150   -0.005    1.448 
 6576  222.079    4.216    3.268   34.802   27.606    7.150   -0.004    1.448 
 6582  222.249    4.216    3.268   34.802   27.606    7.150   -0.004    1.448 
 6591  222.523    4.215    3.268   34.802   27.606    7.150   -0.004    1.448 
 6597  222.706    4.215    3.268   34.802   27.606    7.150   -0.003    1.448 
 6605  222.948    4.214    3.268   34.802   27.606    7.150   -0.003    1.448 
 6612  223.180    4.213    3.268   34.802   27.606    7.152   -0.003    1.450 
 6615  223.281    4.212    3.268   34.802   27.606    7.152   -0.003    1.450 
 6621  223.487    4.212    3.268   34.802   27.606    7.152   -0.003    1.450 
 6629  223.800    4.210    3.268   34.802   27.607    7.153   -0.002    1.450 
 6640  224.171    4.205    3.267   34.802   27.607    7.154   -0.002    1.450 
 6649  224.543    4.202    3.267   34.802   27.607    7.154   -0.002    1.450 
 6661  225.017    4.200    3.267   34.802   27.608    7.156   -0.002    1.450 
 6671  225.395    4.200    3.267   34.802   27.608    7.156   -0.002    1.450 
 6678  225.648    4.199    3.267   34.802   27.608    7.156   -0.002    1.450 
 6686  225.963    4.199    3.267   34.802   27.608    7.159   -0.002    1.450 
 6700  226.521    4.198    3.267   34.802   27.608    7.159   -0.002    1.450 
 6709  226.879    4.192    3.266   34.802   27.609    7.159   -0.002    1.450 
 6714  227.100    4.191    3.266   34.803   27.609    7.159   -0.002    1.450 
 6721  227.390    4.189    3.266   34.803   27.610    7.160   -0.002    1.450 
 6732  227.826    4.189    3.266   34.803   27.610    7.161   -0.002    1.450 
 6740  228.173    4.188    3.266   34.803   27.610    7.162   -0.002    1.450 
 6748  228.495    4.188    3.266   34.803   27.610    7.163   -0.002    1.450 
 6754  228.757    4.188    3.266   34.803   27.610    7.165   -0.002    1.450 
 6762  229.079    4.187    3.266   34.803   27.610    7.168   -0.002    1.450 
 6772  229.437    4.186    3.266   34.803   27.610    7.170   -0.002    1.450 
 6779  229.693    4.186    3.266   34.803   27.610    7.170   -0.003    1.450 
 6783  229.832    4.186    3.266   34.803   27.610    7.170   -0.003    1.450 
 6787  229.993    4.186    3.266   34.804   27.611    7.170   -0.003    1.450 
 6793  230.195    4.186    3.266   34.804   27.611    7.170   -0.004    1.450 
 6797  230.341    4.186    3.266   34.804   27.611    7.170   -0.004    1.452 
 6801  230.500    4.186    3.266   34.804   27.611    7.170   -0.004    1.450 
 6810  230.856    4.186    3.266   34.804   27.611    7.170   -0.004    1.452 
 6816  231.084    4.186    3.266   34.804   27.611    7.170   -0.004    1.452 
 6821  231.302    4.186    3.266   34.804   27.611    7.170   -0.004    1.452 
 6828  231.614    4.186    3.266   34.804   27.611    7.170   -0.004    1.452 
 6836  231.968    4.187    3.266   34.805   27.611    7.170   -0.004    1.452 
 6844  232.361    4.188    3.266   34.806   27.612    7.170   -0.004    1.452 
 6848  232.519    4.188    3.267   34.806   27.612    7.170   -0.004    1.452 
 6852  232.723    4.188    3.267   34.806   27.612    7.170   -0.003    1.452 
 6858  232.991    4.190    3.267   34.807   27.613    7.169   -0.003    1.452 
 6862  233.195    4.192    3.267   34.808   27.613    7.168   -0.003    1.452 
 6871  233.577    4.195    3.267   34.808   27.613    7.168   -0.003    1.452 
 6875  233.747    4.196    3.268   34.809   27.614    7.168   -0.002    1.452 
 6879  233.908    4.198    3.268   34.810   27.614    7.168   -0.002    1.452 
 6885  234.112    4.201    3.268   34.811   27.615    7.168   -0.002    1.452 
 6897  234.528    4.207    3.269   34.812   27.615    7.168   -0.002    1.452 
 6904  234.708    4.207    3.269   34.812   27.615    7.168   -0.002    1.452 
 6913  234.964    4.208    3.269   34.812   27.615    7.167   -0.002    1.452 
 6918  235.097    4.208    3.269   34.812   27.615    7.167   -0.001    1.452 
 6927  235.331    4.208    3.269   34.812   27.615    7.167   -0.001    1.452 
 6937  235.633    4.209    3.269   34.812   27.615    7.167   -0.001    1.452 
 6947  235.945    4.209    3.269   34.812   27.615    7.167   -0.001    1.452 
 6950  236.039    4.209    3.269   34.813   27.615    7.166   -0.001    1.452 
 6955  236.211    4.210    3.269   34.813   27.615    7.166   -0.001    1.452 
 6958  236.307    4.210    3.269   34.813   27.615    7.166   -0.001    1.452 
 6961  236.419    4.210    3.269   34.813   27.615    7.166   -0.001    1.452 
 6967  236.657    4.211    3.269   34.813   27.615    7.166   -0.001    1.454 
 6976  237.018    4.212    3.270   34.814   27.616    7.166   -0.001    1.454 
 6981  237.207    4.212    3.270   34.814   27.616    7.166   -0.001    1.454 
 6988  237.473    4.213    3.270   34.814   27.616    7.166   -0.001    1.454 
 6992  237.634    4.213    3.270   34.814   27.616    7.165   -0.001    1.454 
 6995  237.776    4.213    3.270   34.814   27.616    7.165   -0.001    1.454 
 6998  237.887    4.213    3.270   34.814   27.616    7.165    0.000    1.454 
 7001  238.012    4.213    3.270   34.814   27.616    7.165    0.000    1.454 
 7005  238.203    4.213    3.270   34.814   27.616    7.165    0.000    1.454 
 7010  238.404    4.213    3.270   34.814   27.616    7.165    0.000    1.454 
 7016  238.651    4.213    3.270   34.814   27.616    7.165    0.000    1.454 
 7021  238.866    4.213    3.270   34.814   27.616    7.165    0.000    1.454 
 7024  238.975    4.213    3.270   34.814   27.616    7.165    0.000    1.454 
 7027  239.117    4.213    3.270   34.814   27.616    7.165   -0.001    1.455 
 7030  239.244    4.213    3.270   34.814   27.616    7.165   -0.001    1.455 
 7034  239.435    4.213    3.270   34.814   27.616    7.165   -0.001    1.455 
 7039  239.656    4.212    3.270   34.814   27.616    7.166   -0.001    1.455 
 7043  239.798    4.212    3.270   34.814   27.616    7.166   -0.001    1.455 
 7046  239.939    4.211    3.270   34.814   27.616    7.166   -0.001    1.455 
 7049  240.049    4.211    3.270   34.814   27.616    7.166   -0.001    1.455 
 7052  240.193    4.210    3.270   34.814   27.616    7.166   -0.001    1.455 
 7055  240.334    4.210    3.270   34.814   27.616    7.167   -0.001    1.455 
 7058  240.446    4.210    3.270   34.814   27.616    7.168   -0.002    1.455 
 7061  240.575    4.210    3.270   34.814   27.616    7.167   -0.002    1.455 
 7065  240.759    4.210    3.270   34.814   27.616    7.168   -0.002    1.455 
 7072  241.062    4.210    3.270   34.814   27.616    7.169   -0.003    1.455 
 7077  241.234    4.210    3.270   34.815   27.617    7.169   -0.003    1.455 
 7081  241.412    4.210    3.270   34.815   27.617    7.169   -0.003    1.455 
 7087  241.631    4.210    3.270   34.816   27.618    7.169   -0.003    1.455 
 7093  241.867    4.210    3.270   34.816   27.618    7.169   -0.003    1.455 
 7096  241.976    4.210    3.270   34.816   27.618    7.169   -0.003    1.455 
 7099  242.105    4.210    3.270   34.816   27.618    7.170   -0.003    1.455 
 7110  242.498    4.210    3.270   34.816   27.618    7.170   -0.003    1.455 
 7122  242.876    4.213    3.270   34.818   27.619    7.170   -0.003    1.455 
 7130  243.161    4.214    3.270   34.818   27.619    7.170   -0.003    1.455 
 7138  243.384    4.214    3.270   34.818   27.619    7.170   -0.003    1.455 
 7143  243.554    4.215    3.270   34.818   27.619    7.170   -0.003    1.455 
 7147  243.685    4.215    3.270   34.818   27.619    7.170   -0.003    1.455 
 7153  243.904    4.215    3.270   34.818   27.619    7.170   -0.003    1.455 
 7168  244.408    4.216    3.271   34.818   27.619    7.169   -0.003    1.455 
 7176  244.726    4.217    3.271   34.819   27.619    7.169   -0.003    1.455 
 7181  244.915    4.219    3.271   34.820   27.620    7.169   -0.002    1.455 
 7186  245.183    4.221    3.271   34.820   27.620    7.168   -0.002    1.455 
 7190  245.342    4.222    3.271   34.820   27.620    7.168   -0.002    1.455 
 7196  245.624    4.223    3.271   34.820   27.620    7.168   -0.002    1.455 
 7201  245.849    4.224    3.272   34.821   27.620    7.167   -0.002    1.455 
 7208  246.195    4.227    3.272   34.821   27.620    7.167   -0.002    1.455 
 7214  246.446    4.228    3.272   34.822   27.620    7.167   -0.002    1.455 
 7221  246.779    4.229    3.272   34.822   27.620    7.165   -0.002    1.455 
 7228  247.062    4.230    3.272   34.822   27.621    7.164   -0.002    1.455 
 7240  247.521    4.231    3.272   34.823   27.621    7.164   -0.002    1.455 
 7250  247.805    4.231    3.273   34.823   27.621    7.163   -0.002    1.455 
 7263  248.125    4.234    3.273   34.824   27.621    7.163   -0.002    1.457 
 7276  248.470    4.234    3.273   34.824   27.621    7.161   -0.002    1.457 
 7283  248.657    4.235    3.273   34.824   27.621    7.161   -0.002    1.457 
 7290  248.848    4.235    3.273   34.824   27.622    7.160   -0.003    1.457 
 7296  249.039    4.235    3.273   34.824   27.622    7.155   -0.003    1.457 
 7306  249.385    4.235    3.273   34.825   27.622    7.154   -0.003    1.457 
 7309  249.497    4.235    3.273   34.825   27.622    7.152   -0.003    1.457 
 7316  249.780    4.235    3.273   34.825   27.622    7.149   -0.003    1.457 
 7323  250.096    4.235    3.273   34.825   27.622    7.149   -0.003    1.457 
 7326  250.240    4.235    3.273   34.826   27.623    7.149   -0.003    1.457 
 7331  250.476    4.235    3.273   34.826   27.623    7.148   -0.003    1.459 
 7334  250.618    4.235    3.273   34.826   27.623    7.147   -0.003    1.459 
 7337  250.759    4.235    3.273   34.826   27.623    7.147   -0.003    1.459 
 7340  250.903    4.235    3.273   34.826   27.623    7.147   -0.003    1.459 
 7350  251.423    4.235    3.273   34.826   27.623    7.147   -0.003    1.459 
 7362  251.945    4.233    3.273   34.826   27.623    7.147   -0.003    1.459 
 7367  252.166    4.233    3.273   34.826   27.623    7.147   -0.003    1.459 
 7379  252.591    4.231    3.273   34.826   27.623    7.146   -0.003    1.459 
 7391  252.973    4.229    3.273   34.826   27.624    7.146   -0.003    1.459 
 7397  253.130    4.228    3.273   34.826   27.624    7.145   -0.003    1.459 
 7411  253.478    4.220    3.272   34.826   27.625    7.145   -0.003    1.459 
 7425  253.826    4.218    3.272   34.826   27.625    7.145   -0.003    1.459 
 7432  254.047    4.216    3.272   34.826   27.625    7.144   -0.003    1.459 
 7441  254.333    4.215    3.272   34.826   27.625    7.144   -0.003    1.459 
 7453  254.756    4.214    3.272   34.826   27.625    7.144   -0.003    1.459 
 7461  255.138    4.213    3.271   34.826   27.625    7.144   -0.003    1.459 
 7468  255.439    4.213    3.271   34.826   27.625    7.144   -0.003    1.459 
 7472  255.643    4.212    3.271   34.826   27.625    7.144   -0.003    1.459 
 7475  255.786    4.211    3.271   34.826   27.626    7.144   -0.003    1.459 
 7478  255.926    4.210    3.271   34.826   27.626    7.144   -0.003    1.459 
 7483  256.212    4.210    3.271   34.826   27.626    7.145   -0.003    1.459 
 7486  256.353    4.209    3.271   34.826   27.626    7.145   -0.003    1.459 
 7489  256.527    4.209    3.271   34.826   27.626    7.145   -0.003    1.461 
 7494  256.781    4.209    3.271   34.826   27.626    7.147   -0.003    1.461 
 7504  257.290    4.209    3.271   34.826   27.626    7.147   -0.003    1.461 
 7511  257.618    4.209    3.271   34.826   27.626    7.147   -0.003    1.461 
 7515  257.777    4.209    3.271   34.826   27.626    7.147   -0.003    1.461 
 7523  258.063    4.209    3.271   34.826   27.626    7.151   -0.003    1.461 
 7534  258.441    4.209    3.271   34.826   27.626    7.152   -0.003    1.461 
 7541  258.617    4.209    3.271   34.826   27.626    7.153   -0.003    1.461 
 7560  259.057    4.209    3.271   34.826   27.626    7.154   -0.003    1.461 
 7590  259.768    4.209    3.271   34.826   27.626    7.155   -0.003    1.461 
 7599  260.054    4.209    3.271   34.826   27.626    7.155   -0.003    1.461 
 7612  260.526    4.209    3.271   34.827   27.626    7.155   -0.003    1.461 
 7619  260.810    4.210    3.272   34.827   27.627    7.155   -0.003    1.461 
 7624  261.003    4.213    3.272   34.828   27.627    7.155   -0.002    1.461 
 7632  261.377    4.213    3.272   34.828   27.627    7.155   -0.002    1.461 
 7642  261.804    4.213    3.272   34.828   27.627    7.155   -0.002    1.461 
 7646  261.982    4.213    3.272   34.828   27.627    7.155   -0.002    1.461 
 7657  262.455    4.213    3.272   34.828   27.627    7.154   -0.002    1.461 
 7661  262.646    4.213    3.272   34.829   27.628    7.154   -0.002    1.461 
 7669  263.007    4.213    3.272   34.829   27.628    7.153   -0.002    1.461 
 7678  263.370    4.213    3.272   34.829   27.628    7.153   -0.002    1.461 
 7684  263.613    4.213    3.272   34.829   27.628    7.153   -0.001    1.461 
 7688  263.780    4.213    3.272   34.829   27.628    7.152   -0.001    1.461 
 7693  263.971    4.213    3.272   34.829   27.628    7.152   -0.001    1.461 
 7711  264.573    4.213    3.272   34.829   27.628    7.152   -0.001    1.461 
 7728  265.095    4.210    3.272   34.829   27.628    7.152   -0.001    1.461 
 7737  265.378    4.209    3.272   34.829   27.628    7.152   -0.001    1.461 
 7748  265.741    4.209    3.272   34.829   27.628    7.152   -0.001    1.461 
 7757  266.023    4.208    3.272   34.830   27.629    7.151   -0.001    1.462 
 7768  266.407    4.207    3.272   34.830   27.629    7.149   -0.001    1.462 
 7783  266.895    4.205    3.272   34.830   27.629    7.149   -0.002    1.462 
 7798  267.412    4.205    3.272   34.830   27.629    7.149   -0.002    1.462 
 7808  267.750    4.205    3.272   34.830   27.629    7.149   -0.002    1.462 
 7813  267.934    4.205    3.272   34.830   27.629    7.149   -0.002    1.462 
 7820  268.177    4.205    3.272   34.830   27.629    7.149   -0.002    1.462 
 7825  268.362    4.205    3.272   34.830   27.629    7.148   -0.002    1.462 
 7833  268.678    4.205    3.272   34.830   27.629    7.148   -0.002    1.462 
 7838  268.873    4.204    3.272   34.830   27.629    7.148   -0.002    1.462 
 7846  269.204    4.204    3.272   34.830   27.630    7.148   -0.002    1.462 
 7857  269.664    4.203    3.272   34.830   27.630    7.148   -0.002    1.462 
 7862  269.863    4.200    3.271   34.829   27.630    7.148   -0.002    1.462 
 7868  270.087    4.193    3.271   34.829   27.630    7.149   -0.002    1.462 
 7873  270.295    4.192    3.271   34.829   27.630    7.149   -0.002    1.462 
 7877  270.465    4.189    3.270   34.829   27.630    7.149   -0.002    1.462 
 7884  270.740    4.188    3.270   34.829   27.630    7.149   -0.002    1.462 
 7892  270.997    4.187    3.270   34.829   27.630    7.150   -0.002    1.462 
 7898  271.223    4.187    3.270   34.829   27.630    7.151   -0.001    1.462 
 7904  271.418    4.187    3.270   34.829   27.630    7.152   -0.001    1.462 
 7915  271.756    4.186    3.270   34.829   27.630    7.152   -0.001    1.462 
 7928  272.108    4.186    3.270   34.829   27.630    7.152   -0.001    1.462 
 7933  272.267    4.186    3.270   34.829   27.630    7.152   -0.001    1.462 
 7938  272.411    4.186    3.270   34.829   27.631    7.152   -0.001    1.462 
 7947  272.647    4.186    3.270   34.829   27.631    7.152   -0.001    1.462 
 7956  272.922    4.186    3.270   34.829   27.631    7.153   -0.001    1.462 
 7961  273.087    4.186    3.270   34.829   27.631    7.153   -0.001    1.462 
 7965  273.214    4.186    3.270   34.829   27.631    7.155   -0.001    1.464 
 7971  273.412    4.186    3.270   34.829   27.631    7.155   -0.001    1.464 
 7976  273.547    4.186    3.270   34.829   27.631    7.155   -0.001    1.464 
 7981  273.732    4.187    3.270   34.829   27.631    7.156   -0.001    1.464 
 7990  273.985    4.187    3.270   34.829   27.631    7.156   -0.001    1.464 
 7998  274.237    4.187    3.270   34.829   27.631    7.156   -0.001    1.464 
 8024  274.819    4.190    3.271   34.830   27.631    7.156   -0.001    1.464 
 8045  275.248    4.191    3.271   34.830   27.631    7.156    0.000    1.464 
 8058  275.530    4.191    3.271   34.830   27.631    7.156    0.000    1.464 
 8065  275.712    4.191    3.271   34.830   27.631    7.155    0.000    1.464 
 8072  275.933    4.191    3.271   34.830   27.631    7.155    0.000    1.464 
 8078  276.125    4.191    3.271   34.830   27.631    7.155    0.000    1.466 
 8086  276.455    4.191    3.271   34.830   27.631    7.155    0.000    1.464 
 8089  276.584    4.191    3.271   34.830   27.631    7.156    0.000    1.464 
 8093  276.771    4.191    3.271   34.830   27.631    7.156    0.000    1.466 
 8097  276.960    4.191    3.271   34.830   27.631    7.156    0.000    1.466 
 8100  277.121    4.191    3.271   34.830   27.631    7.156    0.001    1.466 
 8103  277.263    4.190    3.271   34.830   27.631    7.157    0.001    1.464 
 8106  277.420    4.188    3.271   34.830   27.631    7.157    0.001    1.464 
 8111  277.706    4.188    3.271   34.830   27.631    7.157    0.001    1.466 
 8114  277.865    4.188    3.271   34.830   27.631    7.157    0.001    1.466 
 8118  278.110    4.188    3.271   34.830   27.631    7.156    0.001    1.466 
 8123  278.378    4.188    3.271   34.830   27.631    7.156    0.001    1.466 
 8128  278.718    4.188    3.271   34.830   27.631    7.156    0.001    1.466 
 8132  278.909    4.188    3.271   34.830   27.631    7.156    0.001    1.464 
 8135  279.098    4.188    3.271   34.831   27.632    7.156    0.001    1.464 
 8138  279.287    4.188    3.271   34.831   27.632    7.156    0.001    1.464 
 8141  279.446    4.188    3.271   34.831   27.632    7.155    0.000    1.464 
 8144  279.635    4.188    3.271   34.832   27.632    7.154    0.000    1.464 
 8149  279.921    4.194    3.271   34.832   27.632    7.153   -0.002    1.464 
 8152  280.095    4.196    3.272   34.832   27.632    7.147   -0.002    1.464 
 8157  280.363    4.197    3.272   34.832   27.632    7.142   -0.002    1.464 
 8160  280.490    4.197    3.272   34.832   27.632    7.140   -0.002    1.464 
 8163  280.647    4.197    3.272   34.832   27.632    7.140   -0.002    1.464 
 8167  280.808    4.197    3.272   34.832   27.632    7.140   -0.002    1.466 
 8171  280.973    4.197    3.272   34.832   27.632    7.140   -0.002    1.466 
 8174  281.092    4.197    3.272   34.832   27.632    7.140   -0.002    1.466 
 8177  281.184    4.197    3.272   34.832   27.632    7.140   -0.002    1.466 
 8189  281.500    4.197    3.272   34.832   27.632    7.140   -0.002    1.466 
 8197  281.669    4.197    3.272   34.832   27.632    7.140   -0.002    1.466 
 8210  281.874    4.197    3.272   34.832   27.632    7.140   -0.003    1.466 
 8217  281.959    4.197    3.272   34.832   27.632    7.140   -0.003    1.466 
 8227  282.071    4.195    3.272   34.832   27.632    7.140   -0.003    1.466 
 8245  282.333    4.185    3.271   34.832   27.632    7.153   -0.003    1.466 
 8259  282.634    4.184    3.271   34.832   27.632    7.162   -0.003    1.466 
 8264  282.799    4.182    3.270   34.831   27.632    7.163   -0.003    1.466 
 8270  283.003    4.181    3.270   34.831   27.632    7.163   -0.003    1.468 
 8276  283.216    4.181    3.270   34.830   27.632    7.164   -0.003    1.468 
 8279  283.336    4.181    3.270   34.830   27.632    7.165   -0.003    1.468 
 8282  283.463    4.178    3.270   34.830   27.632    7.166   -0.003    1.468 
 8286  283.661    4.177    3.270   34.830   27.632    7.167   -0.002    1.468 
 8294  284.048    4.177    3.270   34.830   27.632    7.170   -0.003    1.468 
 8297  284.166    4.177    3.270   34.830   27.632    7.172   -0.003    1.468 
 8300  284.333    4.177    3.270   34.830   27.632    7.172   -0.003    1.470 
 8303  284.484    4.177    3.270   34.830   27.632    7.172   -0.004    1.470 
 8306  284.634    4.177    3.270   34.830   27.632    7.172   -0.003    1.470 
 8309  284.782    4.177    3.270   34.830   27.632    7.172   -0.003    1.468 
 8312  284.950    4.177    3.270   34.830   27.632    7.172   -0.003    1.468 
 8315  285.085    4.177    3.270   34.830   27.632    7.172   -0.003    1.468 
 8319  285.266    4.178    3.270   34.830   27.632    7.172   -0.003    1.468 
 8323  285.479    4.181    3.270   34.831   27.632    7.172   -0.003    1.468 
 8330  285.788    4.181    3.270   34.832   27.632    7.172   -0.003    1.468 
 8338  286.104    4.191    3.272   34.832   27.632    7.173   -0.003    1.468 
 8343  286.297    4.197    3.272   34.833   27.632    7.173   -0.003    1.468 
 8349  286.476    4.198    3.272   34.833   27.633    7.173   -0.003    1.468 
 8358  286.708    4.207    3.273   34.834   27.633    7.172   -0.003    1.468 
 8364  286.849    4.210    3.273   34.835   27.633    7.172   -0.003    1.468 
 8368  286.929    4.212    3.274   34.835   27.633    7.171   -0.003    1.468 
 8381  287.157    4.212    3.274   34.835   27.633    7.170   -0.003    1.468 
 8389  287.324    4.219    3.274   34.835   27.633    7.170   -0.003    1.468 
 8393  287.404    4.220    3.274   34.836   27.633    7.169   -0.003    1.470 
 8400  287.545    4.221    3.275   34.836   27.634    7.169   -0.003    1.470 
 8406  287.711    4.226    3.275   34.838   27.634    7.168   -0.003    1.470 
 8409  287.805    4.231    3.276   34.839   27.634    7.168   -0.003    1.470 
 8415  287.988    4.231    3.276   34.839   27.634    7.168   -0.003    1.470 
 8420  288.154    4.231    3.276   34.839   27.634    7.168   -0.003    1.470 
 8425  288.340    4.231    3.276   34.840   27.635    7.168   -0.003    1.470 
 8431  288.628    4.231    3.276   34.840   27.635    7.168   -0.003    1.470 
 8434  288.740    4.231    3.276   34.840   27.635    7.168   -0.003    1.470 
 8437  288.891    4.231    3.276   34.840   27.635    7.168   -0.003    1.470 
 8440  289.022    4.231    3.276   34.840   27.635    7.169   -0.003    1.470 
 8446  289.314    4.231    3.276   34.840   27.635    7.169   -0.003    1.470 
 8452  289.591    4.231    3.276   34.840   27.635    7.170   -0.003    1.470 
 8456  289.765    4.231    3.276   34.840   27.635    7.170   -0.003    1.470 
 8460  289.971    4.231    3.276   34.840   27.635    7.170   -0.003    1.470 
 8463  290.113    4.231    3.276   34.841   27.635    7.170   -0.003    1.472 
 8468  290.313    4.231    3.276   34.841   27.635    7.170   -0.003    1.472 
 8484  290.831    4.231    3.276   34.841   27.635    7.170   -0.003    1.472 
 8502  291.263    4.231    3.276   34.841   27.635    7.169   -0.003    1.472 
 8515  291.463    4.231    3.276   34.841   27.635    7.168   -0.003    1.472 
 8530  291.658    4.231    3.276   34.841   27.635    7.168   -0.003    1.472 
 8542  291.882    4.231    3.276   34.841   27.635    7.168   -0.003    1.472 
 8551  292.071    4.231    3.276   34.841   27.635    7.168   -0.003    1.472 
 8558  292.296    4.231    3.276   34.842   27.636    7.168   -0.003    1.472 
 8569  292.720    4.233    3.276   34.843   27.636    7.168   -0.003    1.472 
 8577  293.079    4.235    3.277   34.843   27.636    7.170   -0.003    1.472 
 8587  293.534    4.237    3.277   34.843   27.636    7.170   -0.003    1.472 
 8596  293.996    4.237    3.277   34.843   27.636    7.170   -0.003    1.472 
 8599  294.134    4.237    3.277   34.843   27.636    7.170   -0.003    1.472 
 8602  294.278    4.237    3.277   34.843   27.636    7.170   -0.003    1.472 
 8608  294.564    4.237    3.277   34.843   27.637    7.170   -0.003    1.472 
 8612  294.757    4.237    3.277   34.844   27.637    7.170   -0.003    1.472 
 8615  294.910    4.237    3.277   34.844   27.637    7.170   -0.003    1.472 
 8618  295.034    4.237    3.277   34.844   27.637    7.170   -0.003    1.472 
 8624  295.279    4.237    3.277   34.845   27.638    7.170   -0.003    1.472 
 8633  295.632    4.237    3.277   34.845   27.638    7.170   -0.003    1.472 
 8647  296.081    4.237    3.277   34.845   27.638    7.170   -0.004    1.472 
 8660  296.438    4.236    3.277   34.845   27.638    7.170   -0.004    1.472 
 8666  296.621    4.235    3.277   34.845   27.638    7.170   -0.004    1.472 
 8673  296.823    4.235    3.277   34.845   27.638    7.171   -0.004    1.472 
 8678  296.969    4.233    3.277   34.845   27.638    7.172   -0.004    1.472 
 8685  297.173    4.230    3.276   34.845   27.639    7.172   -0.004    1.472 
 8694  297.446    4.227    3.276   34.845   27.639    7.172   -0.004    1.472 
 8702  297.695    4.226    3.276   34.845   27.639    7.172   -0.004    1.472 
 8711  297.983    4.226    3.276   34.845   27.639    7.172   -0.004    1.472 
 8721  298.349    4.225    3.276   34.845   27.639    7.172   -0.004    1.472 
 8732  298.725    4.225    3.276   34.845   27.639    7.172   -0.004    1.472 
 8741  299.015    4.225    3.276   34.845   27.639    7.172   -0.004    1.472 
 8748  299.247    4.225    3.276   34.845   27.639    7.172   -0.004    1.472 
 8753  299.393    4.225    3.276   34.845   27.639    7.172   -0.004    1.472 
 8761  299.621    4.225    3.276   34.845   27.639    7.172   -0.004    1.472 
 8772  299.926    4.225    3.276   34.845   27.639    7.171   -0.004    1.472 
 8781  300.154    4.225    3.276   34.845   27.639    7.170   -0.004    1.472 
 8799  300.612    4.224    3.276   34.845   27.639    7.170   -0.004    1.472 
 8815  301.051    4.223    3.276   34.845   27.639    7.170   -0.004    1.472 
 8824  301.341    4.223    3.276   34.845   27.639    7.169   -0.004    1.472 
 8829  301.513    4.223    3.276   34.845   27.639    7.168   -0.003    1.472 
 8838  301.893    4.222    3.276   34.845   27.640    7.168   -0.003    1.472 
 8846  302.211    4.222    3.276   34.845   27.640    7.168   -0.003    1.472 
 8854  302.607    4.222    3.276   34.845   27.640    7.166   -0.003    1.473 
 8858  302.828    4.222    3.276   34.845   27.640    7.165   -0.003    1.473 
 8862  303.020    4.221    3.276   34.845   27.640    7.165   -0.003    1.473 
 8866  303.269    4.220    3.276   34.845   27.640    7.165   -0.003    1.473 
 8869  303.415    4.218    3.276   34.845   27.640    7.162   -0.003    1.473 
 8872  303.589    4.215    3.275   34.845   27.640    7.161   -0.003    1.475 
 8878  303.890    4.212    3.275   34.845   27.640    7.161   -0.003    1.475 
 8883  304.142    4.210    3.275   34.845   27.640    7.161   -0.003    1.473 
 8888  304.398    4.209    3.275   34.845   27.640    7.161   -0.003    1.473 
 8896  304.776    4.207    3.275   34.844   27.641    7.161   -0.005    1.473 
 8901  304.967    4.206    3.275   34.844   27.641    7.161   -0.005    1.473 
 8907  305.189    4.206    3.275   34.844   27.641    7.161   -0.005    1.473 
 8956  305.776    4.192    3.273   34.844   27.642    7.161   -0.005    1.475 
 8990  306.283    4.181    3.272   34.844   27.643    7.161   -0.005    1.473 
 8999  306.552    4.180    3.272   34.844   27.643    7.161   -0.005    1.475 
 9011  307.012    4.180    3.272   34.844   27.643    7.160   -0.005    1.475 
 9020  307.405    4.180    3.272   34.844   27.643    7.161   -0.005    1.475 
 9034  308.117    4.180    3.272   34.844   27.643    7.166   -0.005    1.475 
 9039  308.343    4.180    3.272   34.844   27.643    7.166   -0.005    1.475 
 9044  308.592    4.180    3.272   34.844   27.643    7.167   -0.005    1.475 
 9050  308.910    4.180    3.272   34.844   27.643    7.168   -0.005    1.475 
 9056  309.198    4.179    3.272   34.844   27.643    7.168   -0.005    1.475 
 9063  309.559    4.179    3.272   34.844   27.643    7.168   -0.005    1.475 
 9068  309.796    4.179    3.272   34.844   27.643    7.169   -0.004    1.475 
 9079  310.273    4.179    3.273   34.844   27.643    7.169   -0.004    1.475 
 9097  310.826    4.179    3.273   34.844   27.643    7.169   -0.003    1.475 
 9118  311.413    4.179    3.273   34.844   27.643    7.169   -0.003    1.475 
 9130  311.793    4.179    3.273   34.844   27.643    7.172   -0.003    1.477 
 9139  312.127    4.178    3.273   34.844   27.643    7.172   -0.002    1.477 
 9153  312.726    4.179    3.273   34.845   27.644    7.172   -0.002    1.477 
 9158  312.965    4.179    3.273   34.845   27.644    7.172   -0.002    1.477 
 9162  313.139    4.179    3.273   34.845   27.644    7.172   -0.002    1.477 
 9166  313.346    4.179    3.273   34.845   27.644    7.172   -0.002    1.477 
 9170  313.520    4.179    3.273   34.845   27.644    7.172   -0.001    1.477 
 9173  313.664    4.179    3.273   34.845   27.644    7.172   -0.001    1.477 
 9176  313.804    4.179    3.273   34.845   27.644    7.172   -0.001    1.479 
 9180  314.010    4.179    3.273   34.845   27.644    7.172   -0.001    1.479 
 9191  314.470    4.179    3.273   34.845   27.644    7.172   -0.001    1.479 
 9201  314.836    4.179    3.273   34.845   27.644    7.171   -0.001    1.479 
 9214  315.214    4.179    3.273   34.845   27.644    7.167   -0.002    1.479 
 9231  315.578    4.178    3.273   34.845   27.644    7.166   -0.002    1.479 
 9263  316.165    4.177    3.273   34.845   27.644    7.165   -0.002    1.477 
 9285  316.655    4.176    3.272   34.845   27.644    7.165   -0.002    1.479 
 9293  316.878    4.176    3.272   34.845   27.644    7.165   -0.002    1.477 
 9303  317.195    4.175    3.272   34.845   27.645    7.165   -0.002    1.479 
 9315  317.635    4.174    3.272   34.845   27.645    7.165   -0.003    1.479 
 9322  317.941    4.172    3.272   34.845   27.645    7.165   -0.003    1.479 
 9333  318.382    4.169    3.272   34.845   27.645    7.165   -0.003    1.479 
 9338  318.590    4.169    3.272   34.845   27.645    7.163   -0.003    1.479 
 9347  318.999    4.168    3.272   34.845   27.645    7.162   -0.003    1.479 
 9351  319.173    4.168    3.272   34.845   27.645    7.162   -0.004    1.479 
 9361  319.573    4.167    3.272   34.845   27.645    7.161   -0.004    1.479 
 9374  320.093    4.164    3.272   34.845   27.645    7.161   -0.004    1.479 
 9384  320.474    4.164    3.272   34.844   27.645    7.161   -0.004    1.479 
 9390  320.710    4.164    3.272   34.844   27.645    7.161   -0.004    1.479 
 9393  320.790    4.163    3.272   34.844   27.645    7.161   -0.004    1.479 
 9399  320.994    4.163    3.272   34.844   27.645    7.161   -0.004    1.479 
 9403  321.108    4.162    3.271   34.844   27.645    7.161   -0.004    1.479 
 9407  321.233    4.162    3.271   34.844   27.645    7.161   -0.004    1.479 
 9415  321.504    4.162    3.271   34.844   27.645    7.161   -0.004    1.479 
 9424  321.788    4.160    3.271   34.844   27.645    7.161   -0.004    1.479 
 9427  321.900    4.159    3.271   34.844   27.646    7.163   -0.004    1.479 
 9432  322.074    4.158    3.271   34.844   27.646    7.164   -0.004    1.479 
 9440  322.345    4.158    3.271   34.844   27.646    7.165   -0.004    1.479 
 9443  322.452    4.158    3.271   34.844   27.646    7.165   -0.004    1.479 
 9448  322.629    4.157    3.271   34.844   27.646    7.165   -0.004    1.479 
 9454  322.848    4.156    3.271   34.844   27.646    7.165   -0.004    1.479 
 9458  322.979    4.156    3.271   34.844   27.646    7.165   -0.004    1.479 
 9463  323.134    4.156    3.271   34.844   27.646    7.165   -0.004    1.481 
 9467  323.278    4.155    3.271   34.844   27.646    7.165   -0.003    1.481 
 9475  323.534    4.155    3.271   34.844   27.646    7.166   -0.003    1.481 
 9484  323.769    4.155    3.271   34.844   27.646    7.166   -0.003    1.481 
 9494  324.007    4.154    3.271   34.844   27.646    7.167   -0.003    1.481 
 9512  324.403    4.154    3.271   34.844   27.646    7.168   -0.003    1.481 
 9517  324.513    4.154    3.271   34.844   27.646    7.169   -0.003    1.481 
 9522  324.624    4.154    3.271   34.844   27.646    7.169   -0.003    1.481 
 9533  324.893    4.154    3.271   34.844   27.646    7.169   -0.003    1.481 
 9546  325.257    4.154    3.271   34.844   27.646    7.169   -0.003    1.481 
 9551  325.403    4.154    3.271   34.844   27.646    7.169   -0.003    1.481 
 9554  325.511    4.154    3.271   34.844   27.646    7.169   -0.003    1.481 
 9562  325.816    4.154    3.271   34.844   27.646    7.169   -0.003    1.481 
 9566  325.943    4.154    3.271   34.845   27.647    7.169   -0.003    1.481 
 9569  326.065    4.154    3.271   34.845   27.647    7.169   -0.003    1.481 
 9573  326.212    4.154    3.271   34.846   27.647    7.169   -0.004    1.481 
 9580  326.461    4.155    3.271   34.846   27.647    7.169   -0.004    1.481 
 9584  326.625    4.155    3.271   34.846   27.647    7.169   -0.004    1.481 
 9587  326.732    4.155    3.271   34.846   27.647    7.169   -0.004    1.481 
 9593  326.923    4.155    3.271   34.846   27.647    7.169   -0.004    1.481 
 9599  327.158    4.155    3.271   34.846   27.647    7.169   -0.004    1.481 
 9603  327.300    4.155    3.271   34.846   27.647    7.169   -0.004    1.481 
 9609  327.491    4.155    3.271   34.846   27.648    7.168   -0.004    1.481 
 9612  327.573    4.155    3.271   34.847   27.648    7.168   -0.005    1.481 
 9616  327.745    4.155    3.271   34.847   27.648    7.168   -0.005    1.481 
 9621  327.859    4.155    3.271   34.847   27.648    7.168   -0.005    1.481 
 9626  328.033    4.155    3.271   34.847   27.648    7.168   -0.005    1.481 
 9630  328.173    4.155    3.271   34.847   27.648    7.168   -0.005    1.481 
 9636  328.379    4.155    3.271   34.847   27.648    7.168   -0.005    1.481 
 9640  328.504    4.155    3.271   34.847   27.648    7.168   -0.005    1.481 
 9647  328.762    4.155    3.271   34.847   27.648    7.168   -0.005    1.482 
 9650  328.872    4.155    3.271   34.847   27.648    7.168   -0.005    1.482 
 9654  329.044    4.155    3.271   34.847   27.648    7.170   -0.005    1.482 
 9660  329.255    4.155    3.271   34.847   27.648    7.171   -0.005    1.482 
 9663  329.377    4.155    3.271   34.847   27.648    7.171   -0.005    1.482 
 9666  329.504    4.155    3.271   34.847   27.648    7.171   -0.005    1.482 
 9671  329.689    4.155    3.271   34.847   27.648    7.173   -0.005    1.482 
 9676  329.915    4.155    3.271   34.847   27.648    7.173   -0.005    1.482 
 9679  330.027    4.155    3.271   34.847   27.648    7.173   -0.005    1.482 
 9682  330.154    4.155    3.271   34.847   27.648    7.173   -0.005    1.482 
 9686  330.328    4.155    3.271   34.847   27.648    7.174   -0.005    1.482 
 9692  330.582    4.155    3.271   34.847   27.648    7.174   -0.005    1.482 
 9696  330.745    4.155    3.271   34.847   27.648    7.174   -0.005    1.482 
 9703  331.061    4.155    3.271   34.847   27.648    7.174   -0.005    1.482 
 9708  331.248    4.155    3.271   34.847   27.648    7.174   -0.005    1.482 
 9717  331.644    4.155    3.271   34.847   27.648    7.174   -0.005    1.482 
 9720  331.771    4.155    3.271   34.847   27.648    7.174   -0.005    1.482 
 9723  331.881    4.155    3.271   34.847   27.648    7.174   -0.005    1.482 
 9728  332.087    4.155    3.271   34.847   27.648    7.174   -0.005    1.482 
 9731  332.199    4.155    3.271   34.848   27.649    7.174   -0.005    1.482 
 9736  332.418    4.154    3.271   34.848   27.649    7.174   -0.005    1.482 
 9746  332.741    4.154    3.272   34.848   27.649    7.174   -0.005    1.482 
 9756  333.107    4.154    3.272   34.848   27.649    7.175   -0.005    1.482 
 9763  333.339    4.154    3.272   34.848   27.649    7.175   -0.005    1.482 
 9769  333.498    4.154    3.272   34.848   27.649    7.175   -0.005    1.482 
 9782  333.833    4.154    3.272   34.848   27.649    7.176   -0.004    1.482 
 9793  334.085    4.154    3.272   34.848   27.649    7.176   -0.004    1.482 
 9807  334.339    4.153    3.272   34.849   27.650    7.176   -0.004    1.482 
 9814  334.470    4.153    3.272   34.849   27.650    7.176   -0.004    1.482 
 9829  334.743    4.153    3.272   34.849   27.650    7.175   -0.004    1.482 
 9841  334.986    4.153    3.272   34.849   27.650    7.175   -0.004    1.482 
 9855  335.369    4.153    3.272   34.849   27.650    7.175   -0.004    1.482 
 9864  335.659    4.154    3.272   34.849   27.650    7.176   -0.004    1.482 
 9871  335.943    4.154    3.272   34.849   27.650    7.177   -0.004    1.482 
 9878  336.240    4.154    3.272   34.849   27.650    7.177   -0.004    1.482 
 9883  336.477    4.154    3.272   34.849   27.650    7.177   -0.004    1.482 
 9892  336.885    4.154    3.272   34.849   27.650    7.177   -0.004    1.484 
 9896  337.096    4.154    3.272   34.849   27.650    7.177   -0.004    1.484 
 9900  337.333    4.154    3.272   34.849   27.650    7.177   -0.005    1.484 
 9904  337.518    4.154    3.272   34.849   27.650    7.178   -0.005    1.484 
 9907  337.698    4.154    3.272   34.849   27.650    7.179   -0.005    1.484 
 9911  337.948    4.154    3.272   34.849   27.650    7.179   -0.005    1.484 
 9915  338.157    4.154    3.272   34.849   27.650    7.179   -0.005    1.484 
 9919  338.423    4.155    3.272   34.850   27.650    7.180   -0.005    1.484 
 9929  338.983    4.155    3.272   34.850   27.650    7.180   -0.005    1.484 
 9934  339.277    4.155    3.272   34.850   27.650    7.180   -0.005    1.482 
 9938  339.533    4.155    3.272   34.850   27.650    7.180   -0.005    1.482 
 9942  339.755    4.156    3.272   34.850   27.651    7.181   -0.005    1.482 
 9945  339.912    4.156    3.272   34.850   27.651    7.182   -0.005    1.482 
 9948  340.060    4.156    3.272   34.850   27.651    7.182   -0.005    1.484 
 9951  340.230    4.157    3.272   34.850   27.651    7.183   -0.005    1.484 
 9954  340.372    4.157    3.272   34.850   27.651    7.184   -0.005    1.484 
 9958  340.536    4.157    3.272   34.850   27.651    7.184   -0.005    1.484 
 9964  340.800    4.157    3.272   34.850   27.651    7.184   -0.005    1.482 
 9981  341.325    4.159    3.273   34.851   27.651    7.185   -0.005    1.482 
10052  342.519    4.164    3.273   34.852   27.651    7.185   -0.005    1.484 
10064  342.878    4.165    3.273   34.852   27.651    7.185   -0.005    1.484 
10076  343.336    4.165    3.273   34.852   27.651    7.185   -0.004    1.484 
10081  343.558    4.165    3.273   34.853   27.651    7.185   -0.004    1.484 
10084  343.702    4.165    3.274   34.853   27.651    7.185   -0.004    1.484 
10087  343.844    4.166    3.274   34.853   27.652    7.185   -0.004    1.484 
10095  344.242    4.166    3.274   34.853   27.652    7.185   -0.004    1.484 
10100  344.494    4.167    3.274   34.853   27.652    7.185   -0.004    1.484 
10107  344.924    4.168    3.274   34.853   27.652    7.185   -0.004    1.484 
10113  345.223    4.169    3.274   34.853   27.652    7.185   -0.004    1.484 
10116  345.391    4.169    3.274   34.853   27.652    7.185   -0.003    1.484 
10120  345.587    4.170    3.274   34.854   27.652    7.185   -0.003    1.484 
10124  345.828    4.172    3.274   34.854   27.652    7.184   -0.003    1.484 
10131  346.176    4.175    3.274   34.854   27.652    7.183   -0.003    1.484 
10136  346.421    4.176    3.275   34.854   27.652    7.182   -0.003    1.484 
10142  346.716    4.176    3.275   34.854   27.652    7.182   -0.004    1.486 
10148  346.985    4.176    3.275   34.855   27.652    7.178   -0.004    1.486 
10151  347.103    4.176    3.275   34.855   27.652    7.178   -0.004    1.484 
10157  347.308    4.176    3.275   34.855   27.652    7.173   -0.004    1.484 
10173  347.874    4.176    3.275   34.855   27.652    7.166   -0.004    1.486 
10183  348.166    4.176    3.275   34.855   27.652    7.166   -0.004    1.486 
10191  348.373    4.176    3.275   34.855   27.652    7.166   -0.004    1.486 
10204  348.721    4.176    3.275   34.855   27.652    7.166   -0.004    1.486 
10217  349.070    4.176    3.275   34.855   27.652    7.166   -0.003    1.486 
10223  349.237    4.175    3.274   34.854   27.652    7.166   -0.003    1.486 
10232  349.545    4.172    3.274   34.854   27.652    7.166   -0.003    1.486 
10242  349.846    4.168    3.274   34.854   27.652    7.166   -0.003    1.486 
10253  350.163    4.163    3.274   34.853   27.652    7.166   -0.003    1.486 
10261  350.393    4.150    3.272   34.853   27.653    7.166   -0.003    1.486 
10269  350.608    4.148    3.272   34.852   27.653    7.166   -0.003    1.486 
10280  350.903    4.147    3.272   34.852   27.653    7.166   -0.003    1.486 
10286  351.066    4.145    3.272   34.852   27.653    7.169   -0.003    1.486 
10291  351.200    4.142    3.272   34.851   27.654    7.171   -0.003    1.486 
10308  351.716    4.132    3.271   34.851   27.654    7.182   -0.003    1.486 
10315  351.946    4.131    3.271   34.851   27.654    7.188   -0.003    1.486 
10319  352.123    4.131    3.271   34.851   27.654    7.189   -0.003    1.486 
10324  352.321    4.131    3.271   34.851   27.654    7.195   -0.003    1.486 
10331  352.605    4.131    3.271   34.851   27.654    7.195   -0.003    1.486 
10334  352.734    4.131    3.271   34.851   27.654    7.195   -0.003    1.486 
10341  353.065    4.131    3.271   34.851   27.654    7.195   -0.003    1.486 
10347  353.351    4.131    3.271   34.851   27.654    7.195   -0.003    1.486 
10371  354.492    4.131    3.271   34.851   27.654    7.195   -0.003    1.486 
10375  354.668    4.131    3.271   34.851   27.654    7.195   -0.003    1.486 
10380  354.901    4.131    3.271   34.851   27.654    7.195   -0.003    1.486 
10384  355.032    4.131    3.271   34.851   27.654    7.195   -0.003    1.486 
10388  355.181    4.132    3.271   34.852   27.655    7.195   -0.003    1.486 
10395  355.435    4.133    3.271   34.853   27.655    7.195   -0.003    1.486 
10403  355.684    4.142    3.272   34.854   27.655    7.195   -0.004    1.488 
10406  355.777    4.144    3.272   34.855   27.655    7.195   -0.004    1.486 
10414  356.001    4.152    3.273   34.857   27.655    7.195   -0.004    1.486 
10423  356.207    4.162    3.274   34.857   27.655    7.195   -0.004    1.486 
10434  356.455    4.167    3.275   34.857   27.655    7.195   -0.004    1.486 
10441  356.595    4.169    3.275   34.857   27.655    7.194   -0.004    1.486 
10448  356.752    4.169    3.275   34.858   27.655    7.194   -0.004    1.486 
10460  357.049    4.170    3.275   34.858   27.655    7.194   -0.004    1.486 
10469  357.275    4.170    3.275   34.858   27.655    7.194   -0.004    1.486 
10474  357.423    4.171    3.275   34.858   27.655    7.193   -0.004    1.486 
10478  357.557    4.171    3.275   34.858   27.655    7.190   -0.004    1.486 
10485  357.832    4.171    3.275   34.858   27.655    7.190   -0.004    1.486 
10493  358.112    4.171    3.275   34.858   27.655    7.189   -0.004    1.486 
10498  358.318    4.171    3.275   34.858   27.655    7.188   -0.004    1.486 
10502  358.523    4.171    3.275   34.858   27.655    7.188   -0.004    1.486 
10505  358.635    4.171    3.275   34.858   27.655    7.188   -0.004    1.486 
10508  358.777    4.171    3.275   34.858   27.655    7.188   -0.004    1.488 
10514  359.020    4.171    3.275   34.858   27.655    7.188   -0.004    1.488 
10519  359.274    4.171    3.275   34.858   27.655    7.188   -0.004    1.488 
10524  359.498    4.171    3.275   34.858   27.655    7.188   -0.004    1.488 
10528  359.700    4.171    3.275   34.858   27.655    7.190   -0.004    1.488 
10534  359.984    4.171    3.275   34.858   27.655    7.190   -0.004    1.488 
10539  360.180    4.171    3.275   34.858   27.655    7.192   -0.004    1.488 
10544  360.413    4.171    3.275   34.858   27.655    7.193   -0.004    1.488 
10548  360.555    4.171    3.275   34.858   27.655    7.193   -0.004    1.488 
10552  360.699    4.171    3.275   34.858   27.655    7.193   -0.004    1.488 
10556  360.841    4.167    3.275   34.858   27.655    7.193   -0.005    1.488 
10560  360.972    4.167    3.275   34.858   27.655    7.193   -0.005    1.488 
10564  361.110    4.167    3.275   34.858   27.656    7.192   -0.005    1.488 
10567  361.190    4.167    3.275   34.858   27.656    7.192   -0.005    1.488 
10572  361.332    4.167    3.275   34.858   27.656    7.192   -0.005    1.488 
10576  361.446    4.167    3.275   34.858   27.656    7.192   -0.005    1.488 
10582  361.590    4.167    3.275   34.858   27.656    7.192   -0.005    1.490 
10585  361.667    4.166    3.275   34.858   27.656    7.192   -0.005    1.490 
10592  361.812    4.166    3.275   34.858   27.656    7.192   -0.005    1.490 
10599  361.999    4.166    3.275   34.857   27.656    7.192   -0.005    1.490 
10602  362.068    4.165    3.275   34.857   27.656    7.192   -0.005    1.490 
10606  362.173    4.165    3.275   34.858   27.656    7.192   -0.005    1.490 
10611  362.315    4.165    3.275   34.858   27.656    7.192   -0.005    1.490 
10615  362.401    4.165    3.275   34.858   27.656    7.192   -0.005    1.490 
10619  362.511    4.166    3.275   34.858   27.656    7.192   -0.005    1.490 
10628  362.778    4.166    3.275   34.858   27.656    7.192   -0.005    1.490 
10634  362.972    4.166    3.275   34.858   27.656    7.192   -0.005    1.490 
10637  363.077    4.166    3.275   34.858   27.656    7.192   -0.005    1.490 
10641  363.193    4.167    3.275   34.858   27.656    7.192   -0.005    1.490 
10645  363.348    4.167    3.275   34.858   27.656    7.192   -0.004    1.490 
10648  363.458    4.167    3.275   34.858   27.656    7.192   -0.004    1.490 
10651  363.544    4.167    3.275   34.858   27.656    7.192   -0.003    1.490 
10654  363.665    4.167    3.275   34.858   27.656    7.192   -0.003    1.490 
10657  363.779    4.167    3.275   34.858   27.656    7.192   -0.003    1.490 
10660  363.889    4.167    3.275   34.858   27.656    7.192   -0.003    1.490 
10663  364.018    4.167    3.275   34.858   27.656    7.192   -0.003    1.490 
10666  364.140    4.167    3.275   34.858   27.656    7.192   -0.003    1.490 
10669  364.240    4.167    3.275   34.858   27.656    7.192   -0.003    1.490 
10673  364.416    4.167    3.275   34.858   27.656    7.192   -0.003    1.490 
10677  364.584    4.167    3.275   34.858   27.656    7.192   -0.002    1.490 
10680  364.717    4.167    3.275   34.858   27.656    7.192   -0.002    1.490 
10684  364.872    4.167    3.275   34.858   27.656    7.192   -0.002    1.490 
10688  365.066    4.167    3.275   34.858   27.656    7.192   -0.002    1.490 
10691  365.204    4.167    3.275   34.858   27.656    7.192   -0.002    1.490 
10695  365.400    4.167    3.275   34.858   27.656    7.192   -0.002    1.490 
10699  365.559    4.167    3.275   34.858   27.656    7.192   -0.002    1.490 
10702  365.697    4.167    3.275   34.858   27.656    7.191   -0.002    1.490 
10705  365.843    4.167    3.275   34.858   27.656    7.191   -0.002    1.490 
10708  365.987    4.167    3.275   34.858   27.656    7.191   -0.002    1.490 
10711  366.108    4.167    3.275   34.858   27.656    7.190   -0.002    1.490 
10716  366.347    4.167    3.275   34.858   27.656    7.190   -0.002    1.490 
10719  366.480    4.167    3.275   34.858   27.656    7.189   -0.002    1.490 
10722  366.605    4.167    3.275   34.858   27.656    7.189   -0.002    1.490 
10725  366.760    4.167    3.275   34.858   27.656    7.188   -0.002    1.490 
10728  366.861    4.167    3.275   34.858   27.656    7.188   -0.002    1.490 
10734  367.128    4.167    3.275   34.858   27.656    7.188   -0.002    1.490 
10742  367.464    4.167    3.275   34.858   27.656    7.188   -0.002    1.490 
10747  367.653    4.167    3.275   34.858   27.656    7.188   -0.002    1.490 
10750  367.750    4.167    3.275   34.858   27.656    7.188   -0.002    1.490 
10753  367.875    4.167    3.275   34.859   27.656    7.188   -0.002    1.490 
10759  368.062    4.167    3.275   34.859   27.656    7.188   -0.002    1.490 
10766  368.306    4.167    3.275   34.859   27.656    7.188   -0.002    1.490 
10770  368.413    4.167    3.275   34.859   27.656    7.188   -0.002    1.490 
10774  368.523    4.167    3.275   34.859   27.656    7.188   -0.003    1.490 
10783  368.777    4.167    3.275   34.859   27.656    7.189   -0.003    1.490 
10790  368.951    4.167    3.275   34.859   27.656    7.189   -0.004    1.490 
10798  369.145    4.167    3.275   34.859   27.656    7.189   -0.004    1.490 
10805  369.305    4.167    3.275   34.859   27.656    7.189   -0.004    1.492 
10813  369.509    4.167    3.275   34.859   27.656    7.189   -0.004    1.490 
10817  369.638    4.168    3.275   34.859   27.656    7.189   -0.004    1.490 
10826  369.886    4.168    3.275   34.859   27.656    7.189   -0.004    1.492 
10838  370.206    4.168    3.275   34.859   27.656    7.190   -0.004    1.492 
10846  370.456    4.168    3.275   34.859   27.656    7.190   -0.004    1.490 
10854  370.717    4.168    3.275   34.859   27.656    7.190   -0.004    1.492 
10860  370.938    4.166    3.275   34.859   27.656    7.190   -0.004    1.492 
10866  371.145    4.166    3.275   34.859   27.656    7.190   -0.004    1.492 
10877  371.573    4.165    3.275   34.859   27.657    7.190   -0.004    1.492 
10880  371.703    4.165    3.275   34.859   27.657    7.190   -0.004    1.492 
10883  371.828    4.164    3.275   34.859   27.657    7.190   -0.004    1.492 
10886  371.939    4.163    3.275   34.859   27.657    7.189   -0.004    1.492 
10889  372.082    4.163    3.275   34.859   27.657    7.189   -0.004    1.492 
10893  372.213    4.163    3.275   34.858   27.657    7.189   -0.004    1.492 
10898  372.448    4.161    3.275   34.858   27.657    7.189   -0.004    1.492 
10902  372.622    4.161    3.275   34.859   27.657    7.189   -0.004    1.492 
10905  372.764    4.161    3.275   34.859   27.657    7.190   -0.004    1.492 
10908  372.891    4.161    3.275   34.859   27.657    7.190   -0.004    1.492 
10911  373.035    4.161    3.275   34.859   27.657    7.190   -0.004    1.492 
10916  373.210    4.161    3.275   34.859   27.657    7.190   -0.004    1.492 
10925  373.683    4.161    3.275   34.859   27.657    7.190   -0.003    1.492 
10930  373.877    4.161    3.275   34.859   27.657    7.190   -0.003    1.492 
10936  374.146    4.161    3.275   34.859   27.657    7.190   -0.003    1.490 
10940  374.303    4.161    3.275   34.859   27.657    7.190   -0.003    1.490 
10950  374.751    4.161    3.275   34.859   27.657    7.190   -0.003    1.490 
10953  374.878    4.161    3.275   34.860   27.658    7.190   -0.003    1.492 
10958  375.100    4.161    3.275   34.860   27.658    7.190   -0.003    1.492 
10964  375.354    4.163    3.275   34.860   27.658    7.189   -0.003    1.492 
10972  375.670    4.163    3.275   34.861   27.659    7.188   -0.003    1.492 
10977  375.862    4.163    3.275   34.861   27.659    7.188   -0.003    1.492 
10980  375.987    4.163    3.275   34.861   27.659    7.188   -0.003    1.492 
10983  376.086    4.163    3.275   34.861   27.659    7.188   -0.003    1.492 
10986  376.211    4.163    3.275   34.861   27.659    7.188   -0.003    1.492 
10992  376.435    4.163    3.275   34.861   27.659    7.188   -0.003    1.492 
10996  376.607    4.163    3.275   34.861   27.659    7.189   -0.003    1.492 
11001  376.799    4.163    3.275   34.861   27.659    7.190   -0.003    1.492 
11005  376.956    4.163    3.275   34.861   27.659    7.190   -0.003    1.492 
11010  377.147    4.163    3.275   34.861   27.659    7.190   -0.003    1.492 
11014  377.292    4.162    3.275   34.861   27.659    7.190   -0.003    1.492 
11021  377.576    4.156    3.275   34.861   27.659    7.190   -0.003    1.492 
11035  378.086    4.148    3.274   34.861   27.660    7.190   -0.003    1.492 
11056  378.816    4.147    3.274   34.861   27.660    7.190   -0.004    1.492 
11062  379.005    4.146    3.274   34.861   27.660    7.190   -0.004    1.492 
11079  379.531    4.140    3.273   34.861   27.661    7.189   -0.004    1.492 
11114  380.642    4.122    3.272   34.859   27.661    7.190   -0.004    1.492 
11121  380.879    4.116    3.271   34.859   27.662    7.194   -0.004    1.492 
11130  381.212    4.116    3.271   34.859   27.662    7.195   -0.004    1.492 
11137  381.467    4.115    3.271   34.859   27.662    7.195   -0.004    1.492 
11145  381.802    4.113    3.271   34.859   27.662    7.197   -0.004    1.492 
11156  382.231    4.111    3.271   34.859   27.662    7.197   -0.004    1.492 
11163  382.532    4.111    3.271   34.859   27.662    7.197   -0.004    1.493 
11176  383.088    4.111    3.271   34.859   27.662    7.198   -0.004    1.492 
11189  383.628    4.110    3.271   34.859   27.663    7.199   -0.004    1.492 
11198  383.992    4.108    3.271   34.859   27.663    7.200   -0.004    1.493 
11202  384.169    4.108    3.271   34.859   27.663    7.200   -0.004    1.493 
11215  384.643    4.108    3.271   34.859   27.663    7.201   -0.004    1.493 
11225  384.979    4.108    3.271   34.859   27.663    7.201   -0.004    1.492 
11238  385.407    4.107    3.271   34.859   27.663    7.201   -0.004    1.492 
11250  385.836    4.105    3.270   34.860   27.664    7.201   -0.004    1.492 
11256  386.060    4.104    3.270   34.860   27.664    7.201   -0.004    1.492 
11260  386.232    4.103    3.270   34.860   27.664    7.202   -0.004    1.493 
11265  386.424    4.102    3.270   34.860   27.664    7.202   -0.005    1.492 
11268  386.564    4.102    3.270   34.860   27.664    7.202   -0.005    1.492 
11279  387.091    4.098    3.270   34.860   27.665    7.202   -0.005    1.492 
11287  387.455    4.092    3.270   34.860   27.665    7.202   -0.005    1.492 
11292  387.694    4.092    3.270   34.860   27.665    7.202   -0.005    1.492 
11297  388.013    4.092    3.270   34.860   27.665    7.202   -0.005    1.492 
11303  388.295    4.090    3.269   34.860   27.666    7.203   -0.005    1.492 
11312  388.790    4.089    3.269   34.860   27.666    7.203   -0.005    1.493 
11317  389.044    4.089    3.269   34.860   27.666    7.203   -0.005    1.493 
11321  389.264    4.087    3.269   34.860   27.666    7.203   -0.005    1.493 
11325  389.426    4.087    3.269   34.860   27.666    7.203   -0.005    1.492 
11332  389.759    4.087    3.269   34.860   27.666    7.203   -0.005    1.493 
11336  389.949    4.087    3.269   34.860   27.666    7.204   -0.005    1.493 
11344  390.250    4.087    3.269   34.860   27.666    7.204   -0.005    1.493 
11348  390.395    4.087    3.269   34.860   27.666    7.203   -0.005    1.493 
11353  390.554    4.086    3.269   34.860   27.666    7.203   -0.005    1.493 
11366  390.918    4.086    3.269   34.860   27.666    7.203   -0.005    1.493 
11379  391.252    4.086    3.269   34.860   27.666    7.203   -0.005    1.493 
11389  391.506    4.085    3.269   34.860   27.666    7.202   -0.004    1.493 
11402  391.872    4.084    3.269   34.860   27.666    7.202   -0.003    1.493 
11416  392.333    4.084    3.269   34.860   27.666    7.202   -0.003    1.493 
11424  392.587    4.083    3.269   34.860   27.666    7.201   -0.003    1.493 
11429  392.809    4.083    3.269   34.860   27.666    7.201   -0.003    1.493 
11436  393.076    4.083    3.269   34.860   27.666    7.201   -0.003    1.493 
11440  393.192    4.083    3.269   34.859   27.666    7.201   -0.003    1.493 
11444  393.345    4.083    3.269   34.859   27.666    7.201   -0.003    1.493 
11450  393.619    4.082    3.269   34.859   27.666    7.199   -0.003    1.493 
11454  393.776    4.082    3.269   34.859   27.666    7.199   -0.003    1.493 
11458  393.953    4.082    3.269   34.859   27.666    7.199   -0.002    1.493 
11464  394.205    4.081    3.269   34.859   27.666    7.199   -0.002    1.493 
11468  394.383    4.081    3.269   34.859   27.666    7.199   -0.002    1.493 
11472  394.584    4.079    3.269   34.859   27.666    7.199   -0.002    1.493 
11482  395.017    4.079    3.269   34.859   27.666    7.199   -0.002    1.493 
11489  395.335    4.079    3.269   34.859   27.666    7.199   -0.002    1.493 
11492  395.478    4.078    3.269   34.859   27.666    7.199   -0.002    1.493 
11496  395.648    4.078    3.269   34.859   27.666    7.199   -0.002    1.493 
11500  395.844    4.078    3.269   34.859   27.666    7.199   -0.003    1.493 
11503  395.971    4.078    3.269   34.859   27.666    7.200   -0.003    1.495 
11506  396.113    4.077    3.269   34.859   27.666    7.200   -0.003    1.495 
11509  396.242    4.077    3.268   34.859   27.666    7.202   -0.003    1.493 
11512  396.367    4.077    3.268   34.859   27.666    7.203   -0.003    1.493 
11515  396.509    4.077    3.268   34.859   27.666    7.203   -0.003    1.493 
11518  396.636    4.077    3.268   34.859   27.666    7.204   -0.003    1.493 
11521  396.764    4.077    3.268   34.859   27.666    7.205   -0.003    1.493 
11525  396.951    4.076    3.268   34.858   27.666    7.205   -0.003    1.495 
11533  397.272    4.075    3.268   34.858   27.666    7.210   -0.005    1.495 
11540  397.573    4.075    3.268   34.858   27.666    7.214   -0.005    1.495 
11543  397.688    4.075    3.268   34.858   27.666    7.215   -0.005    1.495 
11546  397.815    4.075    3.268   34.858   27.666    7.218   -0.005    1.495 
11549  397.940    4.075    3.268   34.858   27.666    7.219   -0.005    1.495 
11559  398.362    4.075    3.268   34.858   27.666    7.220   -0.005    1.495 
11569  398.782    4.075    3.268   34.858   27.666    7.220   -0.005    1.495 
11572  398.907    4.075    3.268   34.859   27.666    7.220   -0.005    1.495 
11575  399.036    4.075    3.268   34.859   27.666    7.220   -0.005    1.495 
11578  399.195    4.075    3.268   34.859   27.666    7.220   -0.005    1.495 
11581  399.325    4.075    3.268   34.859   27.666    7.221   -0.005    1.495 
11587  399.624    4.075    3.268   34.859   27.666    7.221   -0.005    1.495 
11591  399.833    4.075    3.268   34.859   27.666    7.221   -0.005    1.495 
11594  399.988    4.076    3.269   34.859   27.666    7.221   -0.005    1.495 
11597  400.145    4.076    3.269   34.859   27.666    7.221   -0.004    1.495 
11600  400.292    4.076    3.269   34.859   27.666    7.222   -0.004    1.495 
11606  400.654    4.076    3.269   34.860   27.666    7.222   -0.004    1.495 
11612  400.944    4.078    3.269   34.860   27.666    7.222   -0.004    1.495 
11615  401.119    4.078    3.269   34.860   27.666    7.222   -0.004    1.495 
11618  401.289    4.078    3.269   34.860   27.666    7.223   -0.004    1.495 
11622  401.481    4.079    3.269   34.860   27.666    7.223   -0.004    1.495 
11627  401.724    4.082    3.269   34.860   27.667    7.223   -0.004    1.495 
11631  401.972    4.083    3.269   34.861   27.667    7.224   -0.004    1.495 
11635  402.183    4.086    3.270   34.861   27.667    7.224   -0.004    1.495 
11639  402.342    4.089    3.270   34.861   27.667    7.224   -0.004    1.495 
11642  402.483    4.090    3.270   34.861   27.667    7.224   -0.004    1.495 
11645  402.612    4.090    3.270   34.861   27.667    7.223   -0.004    1.495 
11648  402.737    4.090    3.270   34.861   27.667    7.223   -0.004    1.495 
11654  402.946    4.090    3.270   34.862   27.667    7.223   -0.004    1.495 
11658  403.090    4.090    3.270   34.862   27.667    7.223   -0.004    1.495 
11662  403.228    4.090    3.270   34.862   27.667    7.223   -0.004    1.495 
11669  403.389    4.090    3.270   34.862   27.667    7.223   -0.004    1.495 
11674  403.529    4.090    3.270   34.862   27.667    7.223   -0.004    1.495 
11687  403.822    4.090    3.270   34.862   27.667    7.222   -0.003    1.495 
11693  403.973    4.090    3.270   34.862   27.667    7.222   -0.003    1.495 
11696  404.044    4.090    3.270   34.862   27.667    7.222   -0.003    1.497 
11702  404.197    4.090    3.270   34.862   27.667    7.222   -0.003    1.497 
11712  404.443    4.089    3.270   34.862   27.667    7.221   -0.004    1.497 
11718  404.643    4.089    3.270   34.862   27.667    7.219   -0.004    1.497 
11722  404.753    4.089    3.270   34.862   27.667    7.217   -0.004    1.497 
11727  404.966    4.089    3.270   34.862   27.667    7.217   -0.004    1.497 
11731  405.119    4.089    3.270   34.862   27.667    7.216   -0.004    1.497 
11734  405.220    4.089    3.270   34.862   27.667    7.216   -0.004    1.497 
11737  405.373    4.088    3.270   34.862   27.667    7.214   -0.004    1.497 
11740  405.500    4.088    3.270   34.862   27.667    7.213   -0.004    1.497 
11743  405.649    4.088    3.270   34.862   27.667    7.209   -0.004    1.497 
11746  405.787    4.088    3.270   34.862   27.667    7.208   -0.005    1.497 
11750  406.009    4.088    3.270   34.862   27.667    7.207   -0.005    1.497 
11755  406.233    4.088    3.270   34.862   27.667    7.206   -0.005    1.497 
11759  406.461    4.088    3.270   34.862   27.667    7.206   -0.005    1.497 
11762  406.629    4.088    3.270   34.862   27.667    7.206   -0.005    1.497 
11766  406.843    4.088    3.270   34.862   27.667    7.206   -0.005    1.497 
11770  407.073    4.088    3.270   34.862   27.667    7.206   -0.005    1.497 
11773  407.232    4.088    3.270   34.862   27.667    7.205   -0.005    1.495 
11776  407.416    4.088    3.270   34.862   27.667    7.205   -0.005    1.495 
11784  407.892    4.086    3.270   34.862   27.667    7.205   -0.005    1.495 
11790  408.172    4.083    3.270   34.861   27.667    7.205   -0.005    1.495 
11793  408.329    4.083    3.270   34.861   27.667    7.205   -0.005    1.495 
11796  408.473    4.082    3.270   34.861   27.667    7.205   -0.005    1.495 
11799  408.600    4.081    3.270   34.861   27.667    7.205   -0.005    1.495 
11802  408.749    4.080    3.269   34.861   27.667    7.205   -0.005    1.495 
11805  408.870    4.079    3.269   34.861   27.667    7.205   -0.004    1.495 
11808  408.999    4.078    3.269   34.861   27.667    7.205   -0.004    1.495 
11812  409.124    4.075    3.269   34.860   27.667    7.205   -0.004    1.495 
11818  409.348    4.073    3.269   34.860   27.667    7.205   -0.003    1.495 
11824  409.531    4.066    3.268   34.860   27.667    7.205   -0.003    1.495 
11828  409.665    4.063    3.268   34.859   27.667    7.205   -0.002    1.493 
11837  409.934    4.062    3.268   34.859   27.667    7.205   -0.002    1.493 
11847  410.214    4.060    3.268   34.859   27.667    7.205   -0.002    1.495 
11854  410.453    4.059    3.267   34.858   27.668    7.206   -0.002    1.495 
11860  410.636    4.058    3.267   34.858   27.668    7.206   -0.002    1.495 
11864  410.802    4.057    3.267   34.858   27.668    7.206   -0.002    1.495 
11868  410.936    4.056    3.267   34.858   27.668    7.206   -0.002    1.497 
11871  411.033    4.053    3.267   34.858   27.668    7.206   -0.002    1.497 
11878  411.334    4.053    3.267   34.858   27.668    7.206   -0.002    1.497 
11882  411.502    4.052    3.267   34.858   27.668    7.206   -0.002    1.497 
11887  411.748    4.050    3.267   34.858   27.668    7.206   -0.002    1.497 
11892  411.955    4.049    3.267   34.858   27.668    7.206   -0.002    1.497 
11897  412.248    4.049    3.267   34.858   27.668    7.206   -0.002    1.497 
11902  412.472    4.048    3.267   34.858   27.668    7.205   -0.002    1.497 
11908  412.797    4.048    3.267   34.857   27.668    7.205   -0.002    1.497 
11911  412.965    4.048    3.266   34.857   27.668    7.205   -0.002    1.497 
11916  413.228    4.047    3.266   34.857   27.668    7.205   -0.002    1.497 
11920  413.465    4.047    3.266   34.857   27.668    7.205   -0.002    1.497 
11924  413.689    4.047    3.266   34.857   27.668    7.205   -0.003    1.497 
11927  413.822    4.047    3.266   34.857   27.668    7.205   -0.003    1.497 
11932  414.100    4.046    3.266   34.857   27.668    7.205   -0.004    1.497 
11937  414.355    4.045    3.266   34.857   27.668    7.205   -0.004    1.497 
11940  414.490    4.044    3.266   34.857   27.668    7.204   -0.004    1.497 
11944  414.676    4.044    3.266   34.857   27.668    7.203   -0.004    1.497 
11948  414.880    4.044    3.266   34.857   27.668    7.203   -0.004    1.497 
11954  415.167    4.043    3.266   34.857   27.668    7.203   -0.004    1.497 
11962  415.501    4.043    3.266   34.857   27.668    7.203   -0.005    1.497 
11965  415.628    4.042    3.266   34.857   27.668    7.203   -0.005    1.497 
11971  415.826    4.042    3.266   34.857   27.668    7.202   -0.005    1.495 
11978  416.130    4.042    3.266   34.857   27.668    7.202   -0.005    1.497 
11992  416.606    4.042    3.266   34.857   27.668    7.201   -0.005    1.497 
11999  416.828    4.042    3.266   34.857   27.668    7.201   -0.005    1.497 
12007  417.106    4.042    3.266   34.857   27.668    7.201   -0.005    1.497 
12019  417.505    4.042    3.266   34.857   27.668    7.201   -0.005    1.497 
12025  417.703    4.042    3.266   34.857   27.668    7.201   -0.005    1.497 
12033  417.996    4.042    3.266   34.857   27.668    7.200   -0.005    1.497 
12036  418.116    4.041    3.266   34.857   27.668    7.200   -0.005    1.497 
12041  418.315    4.041    3.266   34.857   27.668    7.200   -0.005    1.497 
12047  418.554    4.041    3.266   34.857   27.668    7.200   -0.005    1.497 
12053  418.832    4.041    3.266   34.857   27.668    7.200   -0.005    1.497 
12059  419.062    4.041    3.266   34.857   27.668    7.200   -0.005    1.497 
12065  419.349    4.041    3.266   34.857   27.668    7.201   -0.005    1.497 
12072  419.689    4.040    3.266   34.857   27.668    7.201   -0.005    1.497 
12075  419.834    4.040    3.266   34.857   27.668    7.201   -0.005    1.497 
12081  420.114    4.039    3.266   34.857   27.668    7.201   -0.005    1.497 
12093  420.644    4.037    3.266   34.857   27.669    7.201   -0.004    1.497 
12096  420.788    4.037    3.266   34.857   27.669    7.201   -0.004    1.497 
12102  421.051    4.036    3.266   34.857   27.669    7.202   -0.004    1.497 
12107  421.264    4.036    3.266   34.857   27.669    7.202   -0.004    1.497 
12121  421.838    4.036    3.266   34.857   27.669    7.202   -0.004    1.497 
12128  422.085    4.035    3.266   34.857   27.669    7.202   -0.004    1.497 
12150  422.887    4.033    3.266   34.857   27.669    7.203   -0.004    1.497 
12165  423.460    4.032    3.266   34.857   27.669    7.203   -0.004    1.497 
12172  423.747    4.032    3.266   34.857   27.669    7.204   -0.004    1.497 
12176  423.936    4.031    3.266   34.857   27.669    7.204   -0.004    1.497 
12183  424.223    4.031    3.266   34.857   27.669    7.204   -0.004    1.497 
12192  424.637    4.031    3.266   34.857   27.669    7.205   -0.004    1.497 
12200  425.001    4.031    3.266   34.857   27.669    7.206   -0.004    1.497 
12207  425.305    4.031    3.266   34.857   27.669    7.206   -0.004    1.497 
12218  425.852    4.031    3.266   34.857   27.669    7.206   -0.004    1.497 
12225  426.242    4.031    3.266   34.857   27.669    7.207   -0.004    1.497 
12229  426.419    4.031    3.266   34.857   27.669    7.207   -0.004    1.497 
12235  426.703    4.031    3.266   34.857   27.669    7.207   -0.004    1.497 
12247  427.315    4.031    3.266   34.857   27.669    7.207   -0.004    1.497 
12254  427.695    4.031    3.266   34.857   27.669    7.208   -0.003    1.497 
12257  427.850    4.031    3.266   34.857   27.669    7.209   -0.003    1.497 
12261  428.031    4.031    3.266   34.857   27.669    7.209   -0.003    1.497 
12265  428.279    4.031    3.266   34.857   27.669    7.209   -0.003    1.497 
12268  428.423    4.031    3.266   34.857   27.669    7.209   -0.003    1.499 
12271  428.587    4.031    3.266   34.857   27.669    7.209   -0.003    1.499 
12274  428.757    4.031    3.266   34.857   27.669    7.209   -0.003    1.499 
12277  428.904    4.031    3.266   34.857   27.669    7.209   -0.003    1.499 
12284  429.272    4.031    3.266   34.857   27.669    7.209   -0.004    1.499 
12287  429.425    4.031    3.266   34.857   27.669    7.208   -0.004    1.499 
12294  429.742    4.031    3.266   34.857   27.669    7.207   -0.004    1.499 
12299  429.953    4.031    3.266   34.857   27.669    7.207   -0.004    1.499 
12305  430.160    4.031    3.266   34.857   27.669    7.207   -0.004    1.499 
12312  430.384    4.030    3.266   34.857   27.669    7.207   -0.004    1.499 
12329  430.749    4.030    3.266   34.857   27.669    7.207   -0.004    1.499 
12339  430.878    4.030    3.266   34.857   27.669    7.207   -0.004    1.499 
12371  431.374    4.030    3.266   34.857   27.669    7.207   -0.004    1.499 
12389  431.817    4.030    3.266   34.857   27.669    7.207   -0.004    1.499 
12398  432.119    4.030    3.266   34.857   27.669    7.207   -0.004    1.499 
12407  432.468    4.030    3.266   34.858   27.670    7.207   -0.004    1.499 
12411  432.673    4.030    3.266   34.858   27.670    7.207   -0.004    1.499 
12414  432.802    4.030    3.266   34.858   27.670    7.207   -0.004    1.499 
12422  433.214    4.030    3.266   34.858   27.670    7.207   -0.004    1.499 
12428  433.471    4.030    3.266   34.858   27.670    7.207   -0.004    1.499 
12431  433.615    4.030    3.266   34.858   27.670    7.207   -0.004    1.499 
12434  433.790    4.030    3.266   34.858   27.670    7.207   -0.004    1.499 
12438  434.010    4.030    3.266   34.858   27.670    7.207   -0.004    1.499 
12443  434.296    4.030    3.266   34.858   27.670    7.208   -0.004    1.499 
12447  434.488    4.030    3.266   34.858   27.670    7.208   -0.004    1.499 
12450  434.678    4.030    3.266   34.858   27.670    7.208   -0.004    1.499 
12453  434.857    4.030    3.266   34.858   27.670    7.208   -0.004    1.499 
12456  435.031    4.030    3.266   34.858   27.670    7.208   -0.004    1.499 
12459  435.221    4.030    3.266   34.858   27.670    7.209   -0.004    1.499 
12462  435.413    4.030    3.266   34.858   27.670    7.209   -0.004    1.499 
12465  435.585    4.030    3.266   34.858   27.670    7.209   -0.004    1.499 
12470  435.943    4.030    3.266   34.858   27.670    7.209   -0.004    1.499 
12475  436.271    4.030    3.266   34.858   27.670    7.210   -0.004    1.499 
12478  436.493    4.030    3.266   34.858   27.670    7.210   -0.004    1.499 
12481  436.717    4.030    3.266   34.858   27.670    7.210   -0.003    1.499 
12484  436.941    4.030    3.266   34.858   27.670    7.210   -0.002    1.499 
12487  437.146    4.030    3.266   34.858   27.670    7.210   -0.002    1.499 
12490  437.355    4.030    3.266   34.858   27.670    7.210   -0.002    1.497 
12493  437.577    4.030    3.266   34.858   27.670    7.210   -0.001    1.499 
12496  437.782    4.030    3.266   34.858   27.670    7.210   -0.001    1.497 
12499  437.991    4.030    3.266   34.858   27.670    7.210   -0.001    1.497 
12502  438.183    4.030    3.266   34.858   27.670    7.210   -0.001    1.497 
12505  438.373    4.030    3.266   34.858   27.670    7.210   -0.001    1.497 
12510  438.677    4.030    3.266   34.858   27.670    7.209   -0.001    1.497 
12513  438.849    4.030    3.266   34.858   27.670    7.208   -0.001    1.497 
12516  438.978    4.030    3.266   34.858   27.670    7.208   -0.001    1.497 
12520  439.151    4.030    3.266   34.858   27.670    7.208   -0.001    1.497 
12524  439.297    4.030    3.266   34.858   27.670    7.208   -0.001    1.497 
12530  439.504    4.030    3.266   34.858   27.670    7.208   -0.002    1.497 
12537  439.662    4.030    3.266   34.858   27.670    7.208   -0.002    1.497 
12550  439.789    4.030    3.266   34.858   27.670    7.208   -0.003    1.499 
12573  439.936    4.030    3.266   34.858   27.670    7.208   -0.005    1.499 
12589  440.158    4.030    3.266   34.858   27.670    7.208   -0.005    1.499 
12600  440.472    4.030    3.266   34.858   27.670    7.208   -0.005    1.499 
12603  440.554    4.030    3.266   34.858   27.670    7.208   -0.005    1.499 
12611  440.871    4.030    3.266   34.858   27.670    7.208   -0.005    1.501 
12615  441.001    4.030    3.266   34.858   27.670    7.208   -0.005    1.501 
12618  441.160    4.030    3.266   34.858   27.670    7.208   -0.005    1.501 
12623  441.399    4.030    3.266   34.858   27.670    7.208   -0.005    1.501 
12626  441.557    4.030    3.266   34.858   27.670    7.208   -0.005    1.501 
12629  441.714    4.030    3.266   34.858   27.670    7.208   -0.005    1.501 
12632  441.876    4.030    3.266   34.858   27.670    7.208   -0.005    1.501 
12635  442.033    4.030    3.266   34.859   27.670    7.208   -0.005    1.501 
12638  442.208    4.030    3.266   34.859   27.670    7.208   -0.004    1.501 
12641  442.385    4.030    3.266   34.859   27.670    7.208   -0.004    1.501 
12644  442.559    4.030    3.266   34.859   27.670    7.208   -0.004    1.501 
12647  442.721    4.030    3.266   34.859   27.670    7.208   -0.004    1.499 
12650  442.896    4.030    3.266   34.859   27.670    7.208   -0.004    1.499 
12654  443.101    4.030    3.266   34.859   27.670    7.208   -0.004    1.499 
12659  443.417    4.030    3.266   34.859   27.671    7.207   -0.003    1.499 
12663  443.612    4.030    3.266   34.859   27.671    7.207   -0.003    1.499 
12667  443.849    4.030    3.266   34.858   27.671    7.207   -0.003    1.499 
12674  444.168    4.029    3.266   34.858   27.671    7.207   -0.003    1.499 
12681  444.487    4.029    3.266   34.858   27.671    7.207   -0.003    1.499 
12688  444.819    4.029    3.266   34.858   27.671    7.207   -0.003    1.499 
12692  444.948    4.029    3.266   34.858   27.671    7.207   -0.003    1.499 
12696  445.123    4.029    3.266   34.858   27.671    7.207   -0.003    1.499 
12708  445.569    4.029    3.266   34.858   27.671    7.206   -0.003    1.499 
12722  446.016    4.028    3.266   34.859   27.671    7.206   -0.003    1.499 
12732  446.350    4.028    3.266   34.859   27.671    7.205   -0.004    1.499 
12743  446.731    4.028    3.266   34.859   27.671    7.206   -0.004    1.499 
12749  446.954    4.027    3.266   34.859   27.671    7.207   -0.004    1.499 
12755  447.176    4.027    3.266   34.859   27.671    7.207   -0.004    1.499 
12764  447.462    4.026    3.266   34.858   27.671    7.208   -0.004    1.499 
12771  447.751    4.026    3.266   34.859   27.671    7.208   -0.004    1.499 
12779  448.036    4.025    3.266   34.859   27.671    7.208   -0.004    1.499 
12790  448.405    4.025    3.266   34.858   27.671    7.208   -0.004    1.499 
12797  448.707    4.024    3.266   34.858   27.671    7.208   -0.004    1.499 
12806  449.041    4.024    3.266   34.858   27.671    7.208   -0.004    1.499 
12822  449.632    4.024    3.266   34.858   27.671    7.208   -0.004    1.499 
12830  449.964    4.024    3.266   34.858   27.672    7.209   -0.004    1.499 
12838  450.248    4.024    3.266   34.859   27.672    7.209   -0.004    1.499 
12843  450.460    4.024    3.266   34.859   27.672    7.209   -0.005    1.499 
12848  450.634    4.024    3.266   34.859   27.672    7.209   -0.005    1.499 
12855  450.919    4.024    3.266   34.859   27.672    7.209   -0.005    1.499 
12859  451.094    4.024    3.266   34.859   27.672    7.209   -0.005    1.499 
12867  451.445    4.024    3.266   34.859   27.672    7.209   -0.005    1.499 
12876  451.844    4.024    3.266   34.859   27.672    7.209   -0.005    1.499 
12880  452.019    4.024    3.266   34.859   27.672    7.209   -0.005    1.499 
12883  452.163    4.024    3.266   34.859   27.672    7.209   -0.005    1.499 
12886  452.303    4.024    3.266   34.859   27.672    7.209   -0.005    1.499 
12890  452.528    4.024    3.266   34.859   27.672    7.209   -0.005    1.499 
12898  452.927    4.024    3.266   34.859   27.672    7.209   -0.005    1.499 
12903  453.181    4.023    3.266   34.859   27.672    7.209   -0.005    1.499 
12906  453.358    4.023    3.266   34.859   27.672    7.208   -0.005    1.499 
12910  453.530    4.023    3.266   34.859   27.672    7.207   -0.005    1.499 
12915  453.850    4.023    3.266   34.859   27.672    7.207   -0.005    1.499 
12919  454.009    4.023    3.266   34.859   27.672    7.207   -0.005    1.499 
12922  454.167    4.023    3.266   34.859   27.672    7.207   -0.005    1.499 
12926  454.328    4.023    3.266   34.859   27.672    7.207   -0.005    1.501 
12930  454.503    4.022    3.266   34.859   27.672    7.207   -0.005    1.501 
12933  454.630    4.022    3.266   34.859   27.672    7.207   -0.005    1.499 
12939  454.807    4.022    3.266   34.859   27.672    7.207   -0.005    1.501 
12964  455.379    4.022    3.266   34.859   27.672    7.207   -0.005    1.501 
12991  455.922    4.020    3.266   34.859   27.672    7.207   -0.005    1.501 
13007  456.412    4.018    3.266   34.859   27.672    7.207   -0.005    1.501 
13015  456.780    4.018    3.266   34.859   27.672    7.207   -0.005    1.501 
13019  456.987    4.018    3.266   34.859   27.672    7.207   -0.005    1.501 
13022  457.145    4.018    3.266   34.859   27.672    7.207   -0.005    1.501 
13026  457.417    4.018    3.266   34.859   27.672    7.207   -0.005    1.503 
13030  457.656    4.018    3.266   34.859   27.672    7.207   -0.005    1.503 
13034  457.898    4.018    3.266   34.859   27.672    7.207   -0.005    1.503 
13041  458.467    4.018    3.266   34.859   27.672    7.209   -0.005    1.503 
13045  458.721    4.018    3.266   34.859   27.672    7.209   -0.005    1.503 
13049  459.008    4.018    3.266   34.859   27.672    7.209   -0.005    1.503 
13053  459.327    4.018    3.266   34.859   27.672    7.209   -0.005    1.503 
13056  459.552    4.018    3.266   34.859   27.672    7.209   -0.005    1.503 
13059  459.776    4.018    3.266   34.859   27.672    7.209   -0.005    1.503 
13062  459.964    4.018    3.266   34.859   27.672    7.209   -0.005    1.503 
13065  460.188    4.019    3.266   34.859   27.672    7.209   -0.005    1.503 
13071  460.568    4.019    3.266   34.859   27.672    7.209   -0.005    1.503 
13075  460.749    4.019    3.266   34.859   27.672    7.209   -0.005    1.501 
13081  461.031    4.019    3.266   34.859   27.672    7.209   -0.005    1.501 
13087  461.238    4.019    3.266   34.859   27.672    7.209   -0.005    1.501 
13117  461.706    4.019    3.266   34.859   27.672    7.209   -0.005    1.501 
13146  462.259    4.019    3.266   34.859   27.672    7.208   -0.005    1.501 
13153  462.500    4.019    3.266   34.859   27.672    7.208   -0.005    1.501 
13156  462.625    4.019    3.266   34.859   27.672    7.207   -0.005    1.501 
13164  462.942    4.019    3.266   34.859   27.672    7.207   -0.005    1.503 
13175  463.469    4.019    3.266   34.859   27.672    7.206   -0.005    1.503 
13182  463.786    4.019    3.266   34.859   27.672    7.206   -0.005    1.501 
13192  464.187    4.019    3.266   34.859   27.672    7.204   -0.005    1.503 
13211  464.808    4.017    3.266   34.859   27.672    7.204   -0.005    1.503 
13231  465.395    4.016    3.266   34.859   27.672    7.204   -0.005    1.501 
13245  465.826    4.016    3.266   34.859   27.672    7.204   -0.005    1.503 
13256  466.273    4.016    3.266   34.859   27.672    7.204   -0.005    1.503 
13260  466.450    4.016    3.266   34.859   27.672    7.204   -0.005    1.503 
13263  466.588    4.016    3.266   34.859   27.672    7.205   -0.005    1.503 
13269  466.926    4.016    3.266   34.859   27.672    7.205   -0.005    1.503 
13273  467.129    4.015    3.266   34.859   27.673    7.206   -0.005    1.503 
13276  467.310    4.015    3.266   34.859   27.673    7.206   -0.005    1.501 
13279  467.485    4.015    3.266   34.859   27.673    7.206   -0.005    1.503 
13282  467.656    4.015    3.266   34.859   27.673    7.206   -0.004    1.503 
13286  467.882    4.014    3.266   34.859   27.673    7.206   -0.004    1.503 
13290  468.147    4.014    3.266   34.859   27.673    7.207   -0.004    1.503 
13293  468.313    4.013    3.266   34.859   27.673    7.208   -0.003    1.503 
13296  468.521    4.012    3.266   34.859   27.673    7.208   -0.003    1.501 
13299  468.691    4.012    3.266   34.859   27.673    7.208   -0.003    1.501 
13304  468.978    4.012    3.266   34.859   27.673    7.208   -0.003    1.501 
13310  469.265    4.010    3.266   34.859   27.673    7.209   -0.003    1.501 
13314  469.461    4.009    3.266   34.859   27.673    7.209   -0.003    1.501 
13317  469.599    4.009    3.266   34.859   27.673    7.209   -0.003    1.501 
13323  469.821    4.009    3.266   34.859   27.673    7.209   -0.003    1.501 
13368  470.686    4.007    3.266   34.859   27.673    7.209   -0.003    1.501 
13379  470.922    4.006    3.265   34.859   27.673    7.210   -0.003    1.503 
13384  471.064    4.006    3.265   34.859   27.673    7.210   -0.003    1.501 
13392  471.321    4.005    3.265   34.859   27.674    7.210   -0.003    1.501 
13401  471.685    4.004    3.265   34.859   27.674    7.210   -0.003    1.501 
13406  471.879    4.004    3.265   34.859   27.674    7.210   -0.003    1.501 
13412  472.194    4.003    3.265   34.859   27.674    7.210   -0.002    1.501 
13419  472.570    4.002    3.265   34.859   27.674    7.210   -0.002    1.503 
13425  472.880    4.002    3.265   34.859   27.674    7.210   -0.002    1.503 
13429  473.107    4.001    3.265   34.859   27.674    7.209   -0.002    1.501 
13432  473.280    4.001    3.265   34.859   27.674    7.209   -0.002    1.501 
13437  473.566    4.001    3.265   34.859   27.674    7.209   -0.002    1.501 
13441  473.797    4.000    3.265   34.859   27.674    7.209   -0.002    1.501 
13445  473.998    4.000    3.265   34.859   27.674    7.209   -0.002    1.503 
13450  474.285    4.000    3.265   34.859   27.674    7.209   -0.002    1.503 
13453  474.436    4.000    3.265   34.859   27.674    7.209   -0.002    1.503 
13457  474.643    3.999    3.265   34.859   27.674    7.208   -0.002    1.501 
13461  474.844    3.999    3.265   34.859   27.674    7.208   -0.002    1.501 
13464  474.986    3.999    3.265   34.859   27.674    7.208   -0.002    1.501 
13468  475.178    3.999    3.265   34.859   27.674    7.208   -0.002    1.501 
13474  475.433    3.999    3.265   34.859   27.674    7.208   -0.002    1.501 
13477  475.575    3.999    3.265   34.859   27.674    7.208   -0.002    1.501 
13480  475.687    3.999    3.265   34.859   27.674    7.207   -0.002    1.501 
13485  475.877    3.999    3.265   34.859   27.674    7.207   -0.002    1.501 
13488  475.991    3.999    3.265   34.859   27.674    7.207   -0.002    1.501 
13494  476.220    3.999    3.265   34.859   27.674    7.207   -0.003    1.501 
13500  476.419    3.999    3.265   34.859   27.674    7.207   -0.003    1.501 
13503  476.516    3.999    3.265   34.859   27.674    7.208   -0.003    1.501 
13506  476.613    3.999    3.265   34.859   27.674    7.208   -0.003    1.501 
13510  476.732    3.999    3.265   34.859   27.674    7.208   -0.003    1.501 
13515  476.906    3.998    3.265   34.859   27.674    7.208   -0.003    1.501 
13527  477.267    3.998    3.265   34.859   27.674    7.208   -0.003    1.503 
13530  477.362    3.998    3.265   34.859   27.674    7.209   -0.003    1.501 
13533  477.450    3.998    3.265   34.859   27.674    7.209   -0.004    1.501 
13536  477.536    3.997    3.265   34.859   27.674    7.211   -0.004    1.501 
13546  477.800    3.996    3.265   34.859   27.675    7.211   -0.004    1.503 
13553  478.000    3.995    3.265   34.859   27.675    7.211   -0.004    1.501 
13562  478.263    3.994    3.265   34.859   27.675    7.211   -0.004    1.503 
13576  478.628    3.994    3.265   34.859   27.675    7.209   -0.004    1.503 
13580  478.764    3.993    3.265   34.859   27.675    7.209   -0.005    1.503 
13584  478.885    3.993    3.265   34.859   27.675    7.209   -0.005    1.503 
13589  479.027    3.993    3.265   34.859   27.675    7.209   -0.005    1.503 
13595  479.219    3.992    3.265   34.859   27.675    7.209   -0.005    1.503 
13603  479.491    3.992    3.265   34.859   27.675    7.209   -0.005    1.503 
13611  479.735    3.992    3.265   34.859   27.675    7.209   -0.005    1.503 
13614  479.834    3.992    3.265   34.859   27.675    7.211   -0.005    1.503 
13617  479.942    3.992    3.265   34.859   27.675    7.211   -0.005    1.503 
13624  480.207    3.992    3.265   34.859   27.675    7.211   -0.005    1.503 
13629  480.400    3.992    3.265   34.859   27.675    7.210   -0.005    1.503 
13634  480.587    3.992    3.265   34.859   27.675    7.209   -0.005    1.503 
13638  480.751    3.991    3.265   34.859   27.675    7.209   -0.005    1.503 
13644  480.980    3.990    3.265   34.859   27.675    7.209   -0.005    1.503 
13648  481.157    3.990    3.265   34.859   27.675    7.209   -0.005    1.503 
13652  481.338    3.990    3.265   34.859   27.675    7.209   -0.005    1.503 
13655  481.491    3.990    3.265   34.859   27.675    7.209   -0.005    1.503 
13658  481.627    3.989    3.265   34.859   27.675    7.209   -0.005    1.503 
13661  481.793    3.989    3.265   34.859   27.675    7.209   -0.005    1.503 
13664  481.938    3.989    3.265   34.859   27.675    7.209   -0.005    1.503 
13667  482.089    3.989    3.264   34.859   27.675    7.209   -0.005    1.503 
13670  482.238    3.989    3.264   34.859   27.675    7.210   -0.005    1.503 
13673  482.406    3.989    3.264   34.859   27.675    7.210   -0.005    1.503 
13676  482.575    3.989    3.264   34.859   27.675    7.211   -0.005    1.503 
13679  482.743    3.989    3.264   34.859   27.675    7.211   -0.005    1.503 
13682  482.894    3.989    3.264   34.859   27.675    7.212   -0.005    1.503 
13685  483.077    3.988    3.264   34.859   27.675    7.212   -0.005    1.503 
13688  483.243    3.988    3.264   34.859   27.675    7.212   -0.005    1.503 
13691  483.412    3.988    3.264   34.859   27.675    7.212   -0.005    1.503 
13694  483.578    3.988    3.264   34.859   27.675    7.212   -0.005    1.503 
13697  483.746    3.988    3.264   34.859   27.675    7.213   -0.005    1.503 
13701  483.994    3.988    3.264   34.859   27.675    7.213   -0.005    1.503 
13707  484.273    3.988    3.264   34.859   27.675    7.213   -0.005    1.503 
13710  484.432    3.988    3.264   34.859   27.675    7.213   -0.005    1.503 
13713  484.568    3.988    3.264   34.859   27.675    7.214   -0.005    1.503 
13716  484.719    3.987    3.264   34.859   27.676    7.214   -0.005    1.503 
13719  484.847    3.987    3.264   34.859   27.676    7.214   -0.005    1.503 
13722  484.983    3.987    3.264   34.859   27.676    7.214   -0.005    1.503 
13725  485.117    3.987    3.264   34.859   27.676    7.214   -0.005    1.503 
13728  485.237    3.987    3.264   34.859   27.676    7.214   -0.005    1.503 
13734  485.447    3.987    3.264   34.859   27.676    7.215   -0.005    1.503 
13748  485.924    3.987    3.264   34.859   27.676    7.216   -0.005    1.503 
13753  486.060    3.986    3.264   34.859   27.676    7.216   -0.005    1.503 
13762  486.256    3.986    3.264   34.859   27.676    7.216   -0.005    1.503 
13769  486.457    3.986    3.264   34.859   27.676    7.216   -0.005    1.503 
13776  486.627    3.985    3.264   34.859   27.676    7.216   -0.005    1.503 
13788  486.983    3.985    3.264   34.859   27.676    7.216   -0.005    1.503 
13798  487.279    3.985    3.264   34.859   27.676    7.216   -0.005    1.503 
13802  487.447    3.985    3.264   34.859   27.676    7.217   -0.005    1.503 
13806  487.598    3.984    3.264   34.859   27.676    7.217   -0.005    1.503 
13811  487.749    3.984    3.264   34.859   27.676    7.217   -0.005    1.503 
13815  487.924    3.984    3.264   34.859   27.676    7.217   -0.005    1.503 
13819  488.108    3.984    3.264   34.859   27.676    7.217   -0.005    1.503 
13826  488.349    3.984    3.264   34.859   27.676    7.217   -0.005    1.503 
13830  488.515    3.984    3.264   34.859   27.676    7.217   -0.005    1.503 
13833  488.641    3.984    3.264   34.859   27.676    7.217   -0.005    1.503 
13837  488.779    3.984    3.264   34.859   27.676    7.217   -0.005    1.503 
13850  489.275    3.984    3.264   34.859   27.676    7.217   -0.005    1.503 
13856  489.471    3.984    3.264   34.859   27.676    7.217   -0.005    1.503 
13861  489.629    3.984    3.264   34.859   27.676    7.217   -0.005    1.503 
13866  489.795    3.984    3.264   34.859   27.676    7.217   -0.005    1.503 
13887  490.471    3.984    3.264   34.859   27.676    7.217   -0.005    1.503 
13899  490.907    3.984    3.264   34.859   27.676    7.217   -0.005    1.503 
13905  491.114    3.984    3.264   34.859   27.676    7.217   -0.005    1.503 
13909  491.235    3.984    3.264   34.859   27.676    7.217   -0.005    1.503 
13915  491.498    3.984    3.264   34.859   27.676    7.217   -0.005    1.503 
13920  491.703    3.984    3.264   34.859   27.676    7.217   -0.005    1.503 
13923  491.822    3.984    3.264   34.859   27.676    7.217   -0.005    1.503 
13926  491.975    3.984    3.264   34.859   27.676    7.217   -0.005    1.503 
13929  492.102    3.984    3.264   34.859   27.676    7.217   -0.005    1.503 
13932  492.247    3.984    3.264   34.859   27.676    7.217   -0.005    1.503 
13935  492.407    3.984    3.264   34.859   27.676    7.217   -0.005    1.503 
13938  492.538    3.984    3.264   34.859   27.676    7.217   -0.005    1.503 
13941  492.694    3.984    3.264   34.859   27.676    7.218   -0.005    1.503 
13947  492.996    3.984    3.264   34.859   27.676    7.218   -0.005    1.503 
13951  493.188    3.983    3.264   34.859   27.676    7.218   -0.005    1.503 
13954  493.352    3.983    3.264   34.859   27.676    7.218   -0.005    1.503 
13957  493.492    3.983    3.264   34.859   27.676    7.218   -0.005    1.503 
13960  493.633    3.983    3.264   34.859   27.676    7.218   -0.005    1.503 
13963  493.777    3.983    3.264   34.859   27.676    7.218   -0.005    1.503 
13967  493.987    3.983    3.264   34.859   27.676    7.218   -0.005    1.503 
13972  494.151    3.982    3.264   34.859   27.676    7.218   -0.005    1.501 
13977  494.399    3.981    3.264   34.859   27.676    7.219   -0.005    1.501 
13987  494.751    3.978    3.264   34.859   27.676    7.219   -0.005    1.501 
13992  494.910    3.978    3.264   34.859   27.676    7.219   -0.005    1.501 
13997  495.053    3.978    3.264   34.859   27.676    7.219   -0.005    1.501 
14001  495.182    3.978    3.264   34.859   27.676    7.220   -0.004    1.503 
14014  495.502    3.978    3.264   34.859   27.676    7.220   -0.004    1.503 
14028  495.851    3.978    3.264   34.859   27.676    7.220   -0.004    1.503 
14041  496.188    3.978    3.264   34.859   27.676    7.221   -0.004    1.503 
14051  496.471    3.978    3.264   34.859   27.676    7.221   -0.004    1.503 
14058  496.728    3.978    3.264   34.859   27.676    7.221   -0.004    1.503 
14066  497.015    3.978    3.264   34.859   27.676    7.221   -0.004    1.503 
14072  497.257    3.978    3.264   34.859   27.676    7.221   -0.004    1.503 
14080  497.606    3.977    3.264   34.859   27.677    7.221   -0.004    1.503 
14084  497.818    3.977    3.264   34.859   27.677    7.221   -0.004    1.503 
14088  497.990    3.977    3.264   34.859   27.677    7.221   -0.004    1.501 
14094  498.325    3.977    3.264   34.859   27.677    7.222   -0.004    1.501 
14099  498.567    3.977    3.264   34.859   27.677    7.222   -0.004    1.501 
14103  498.806    3.977    3.264   34.859   27.677    7.222   -0.004    1.501 
14106  498.996    3.977    3.264   34.859   27.677    7.222   -0.005    1.501 
14109  499.143    3.976    3.264   34.859   27.677    7.222   -0.005    1.501 
14112  499.318    3.976    3.264   34.859   27.677    7.221   -0.005    1.503 
14116  499.525    3.975    3.264   34.859   27.677    7.221   -0.005    1.503 
14124  499.957    3.974    3.264   34.859   27.677    7.221   -0.005    1.503 
14128  500.127    3.973    3.264   34.859   27.677    7.220   -0.005    1.503 
14133  500.386    3.973    3.264   34.859   27.677    7.220   -0.005    1.503 
14143  500.753    3.972    3.264   34.859   27.677    7.220   -0.005    1.503 
14156  501.103    3.972    3.264   34.859   27.677    7.220   -0.005    1.503 
14190  501.580    3.971    3.264   34.859   27.677    7.219   -0.005    1.503 
14225  502.349    3.971    3.264   34.859   27.677    7.218   -0.005    1.503 
14235  502.685    3.971    3.264   34.859   27.677    7.218   -0.004    1.503 
14242  502.973    3.971    3.264   34.859   27.677    7.217   -0.004    1.503 
14249  503.307    3.971    3.264   34.859   27.677    7.217   -0.004    1.503 
14261  503.834    3.969    3.264   34.859   27.677    7.216   -0.004    1.503 
14266  504.074    3.969    3.264   34.859   27.677    7.216   -0.004    1.503 
14269  504.216    3.969    3.264   34.859   27.677    7.216   -0.004    1.503 
14272  504.361    3.968    3.264   34.859   27.677    7.215   -0.004    1.503 
14279  504.667    3.967    3.264   34.859   27.678    7.215   -0.004    1.503 
14289  505.080    3.966    3.263   34.859   27.678    7.214   -0.004    1.503 
14295  505.334    3.966    3.263   34.859   27.678    7.214   -0.003    1.503 
14303  505.619    3.966    3.263   34.859   27.678    7.214   -0.003    1.503 
14310  505.878    3.965    3.263   34.859   27.678    7.214   -0.003    1.503 
14315  506.068    3.964    3.263   34.859   27.678    7.214   -0.003    1.503 
14323  506.308    3.963    3.263   34.859   27.678    7.214   -0.003    1.503 
14329  506.483    3.962    3.263   34.859   27.678    7.214   -0.003    1.503 
14338  506.770    3.960    3.263   34.859   27.678    7.214   -0.003    1.503 
14350  507.139    3.957    3.263   34.859   27.679    7.214   -0.003    1.503 
14357  507.379    3.956    3.263   34.859   27.679    7.215   -0.003    1.503 
14366  507.698    3.956    3.263   34.859   27.679    7.216   -0.003    1.503 
14377  508.063    3.955    3.263   34.859   27.679    7.216   -0.003    1.503 
14386  508.413    3.955    3.263   34.859   27.679    7.216   -0.003    1.503 
14398  508.864    3.954    3.263   34.859   27.679    7.216   -0.003    1.503 
14404  509.084    3.954    3.263   34.859   27.679    7.216   -0.003    1.503 
14408  509.246    3.954    3.263   34.859   27.679    7.216   -0.003    1.503 
14415  509.518    3.954    3.263   34.859   27.679    7.216   -0.004    1.503 
14424  509.849    3.953    3.263   34.859   27.679    7.216   -0.004    1.503 
14435  510.283    3.953    3.263   34.859   27.679    7.216   -0.004    1.503 
14448  510.745    3.953    3.263   34.859   27.679    7.216   -0.004    1.503 
14456  511.034    3.953    3.263   34.859   27.679    7.217   -0.004    1.503 
14468  511.384    3.953    3.263   34.859   27.679    7.217   -0.004    1.503 
14477  511.621    3.953    3.263   34.859   27.679    7.217   -0.004    1.503 
14487  511.863    3.953    3.263   34.860   27.680    7.217   -0.004    1.503 
14506  512.295    3.952    3.263   34.860   27.680    7.217   -0.004    1.503 
14530  512.962    3.952    3.263   34.860   27.680    7.217   -0.004    1.503 
14547  513.556    3.952    3.263   34.860   27.680    7.217   -0.004    1.503 
14560  514.098    3.951    3.263   34.860   27.680    7.216   -0.004    1.503 
14566  514.370    3.951    3.263   34.860   27.680    7.215   -0.004    1.503 
14575  514.752    3.950    3.263   34.860   27.680    7.215   -0.004    1.503 
14584  515.134    3.950    3.263   34.860   27.680    7.215   -0.004    1.503 
14588  515.329    3.950    3.263   34.860   27.680    7.215   -0.004    1.505 
14596  515.631    3.950    3.263   34.860   27.680    7.214   -0.004    1.505 
14604  515.948    3.950    3.263   34.860   27.680    7.214   -0.004    1.505 
14611  516.236    3.949    3.262   34.860   27.680    7.214   -0.004    1.505 
14618  516.460    3.949    3.262   34.860   27.680    7.213   -0.004    1.505 
14625  516.702    3.949    3.262   34.860   27.680    7.213   -0.004    1.505 
14639  517.082    3.949    3.262   34.860   27.680    7.213   -0.004    1.505 
14649  517.322    3.948    3.262   34.860   27.680    7.213   -0.004    1.505 
14676  517.976    3.947    3.262   34.860   27.680    7.213   -0.004    1.505 
14682  518.136    3.946    3.262   34.860   27.681    7.213   -0.004    1.505 
14691  518.358    3.945    3.262   34.860   27.681    7.213   -0.004    1.505 
14701  518.680    3.943    3.262   34.860   27.681    7.213   -0.004    1.505 
14709  518.982    3.940    3.262   34.860   27.681    7.213   -0.004    1.505 
14715  519.161    3.938    3.262   34.860   27.681    7.213   -0.005    1.503 
14720  519.382    3.936    3.262   34.860   27.682    7.213   -0.005    1.503 
14724  519.541    3.936    3.261   34.860   27.682    7.214   -0.005    1.503 
14729  519.734    3.935    3.261   34.860   27.682    7.214   -0.005    1.503 
14732  519.861    3.934    3.261   34.860   27.682    7.214   -0.005    1.503 
14746  520.502    3.933    3.261   34.860   27.682    7.215   -0.005    1.503 
14749  520.641    3.933    3.261   34.860   27.682    7.215   -0.005    1.503 
14753  520.850    3.933    3.261   34.860   27.682    7.216   -0.005    1.503 
14757  520.997    3.933    3.261   34.860   27.682    7.216   -0.005    1.503 
14760  521.120    3.933    3.261   34.860   27.682    7.216   -0.005    1.503 
14764  521.314    3.932    3.261   34.860   27.682    7.216   -0.004    1.503 
14768  521.459    3.932    3.261   34.860   27.682    7.216   -0.004    1.503 
14771  521.584    3.931    3.261   34.860   27.682    7.216   -0.004    1.503 
14774  521.681    3.930    3.261   34.860   27.682    7.217   -0.004    1.503 
14777  521.807    3.929    3.261   34.860   27.682    7.217   -0.004    1.503 
14783  522.014    3.927    3.261   34.860   27.682    7.217   -0.004    1.503 
14787  522.113    3.925    3.261   34.860   27.683    7.217   -0.004    1.503 
14791  522.223    3.923    3.260   34.860   27.683    7.217   -0.004    1.503 
14799  522.400    3.919    3.260   34.860   27.683    7.217   -0.004    1.503 
14802  522.480    3.919    3.260   34.860   27.683    7.217   -0.004    1.503 
14813  522.670    3.918    3.260   34.860   27.683    7.217   -0.004    1.503 
14822  522.832    3.917    3.260   34.860   27.684    7.217   -0.004    1.503 
14831  522.988    3.916    3.260   34.860   27.684    7.217   -0.004    1.503 
14836  523.087    3.916    3.260   34.860   27.684    7.217   -0.004    1.503 
14844  523.292    3.916    3.260   34.860   27.684    7.217   -0.004    1.503 
14849  523.404    3.916    3.260   34.860   27.684    7.217   -0.004    1.503 
14852  523.484    3.916    3.260   34.860   27.684    7.217   -0.004    1.503 
14856  523.631    3.916    3.260   34.860   27.684    7.217   -0.004    1.503 
14868  524.031    3.915    3.260   34.860   27.684    7.217   -0.004    1.503 
14872  524.171    3.915    3.260   34.860   27.684    7.218   -0.004    1.503 
14877  524.348    3.915    3.260   34.860   27.684    7.218   -0.004    1.503 
14881  524.508    3.915    3.260   34.860   27.684    7.219   -0.005    1.503 
14885  524.665    3.915    3.260   34.860   27.684    7.219   -0.005    1.503 
14889  524.827    3.915    3.260   34.860   27.684    7.219   -0.005    1.503 
14894  525.037    3.915    3.260   34.860   27.684    7.220   -0.005    1.503 
14897  525.145    3.914    3.260   34.860   27.684    7.220   -0.005    1.503 
14900  525.272    3.914    3.260   34.860   27.684    7.220   -0.005    1.503 
14904  525.417    3.914    3.260   34.860   27.684    7.220   -0.005    1.503 
14909  525.626    3.914    3.260   34.860   27.684    7.221   -0.005    1.503 
14915  525.849    3.914    3.260   34.860   27.684    7.222   -0.005    1.503 
14920  526.039    3.914    3.260   34.860   27.684    7.222   -0.005    1.503 
14924  526.168    3.914    3.260   34.859   27.683    7.223   -0.005    1.503 
14928  526.309    3.914    3.260   34.859   27.683    7.223   -0.005    1.503 
14932  526.473    3.914    3.260   34.859   27.683    7.223   -0.005    1.503 
14936  526.581    3.914    3.260   34.859   27.683    7.223   -0.005    1.503 
14939  526.680    3.914    3.260   34.859   27.683    7.223   -0.005    1.503 
14944  526.840    3.913    3.260   34.859   27.683    7.224   -0.005    1.503 
14949  527.000    3.912    3.260   34.859   27.683    7.224   -0.005    1.503 
14955  527.205    3.911    3.260   34.859   27.683    7.224   -0.005    1.503 
14961  527.410    3.910    3.260   34.859   27.683    7.224   -0.005    1.503 
14974  527.894    3.910    3.260   34.859   27.683    7.224   -0.005    1.503 
14987  528.386    3.910    3.260   34.859   27.683    7.224   -0.005    1.503 
14991  528.546    3.910    3.260   34.859   27.683    7.224   -0.005    1.503 
14996  528.753    3.910    3.260   34.859   27.683    7.224   -0.005    1.503 
15001  528.963    3.910    3.260   34.859   27.683    7.224   -0.005    1.503 
15004  529.071    3.910    3.260   34.859   27.683    7.225   -0.005    1.503 
15008  529.265    3.910    3.260   34.859   27.683    7.225   -0.005    1.503 
15015  529.533    3.910    3.260   34.859   27.683    7.225   -0.005    1.503 
15027  529.984    3.910    3.260   34.859   27.683    7.225   -0.005    1.503 
15031  530.129    3.910    3.260   34.859   27.683    7.224   -0.005    1.503 
15040  530.462    3.909    3.260   34.859   27.684    7.223   -0.005    1.503 
15046  530.654    3.909    3.260   34.859   27.684    7.222   -0.005    1.503 
15050  530.766    3.909    3.260   34.859   27.684    7.222   -0.005    1.503 
15063  531.183    3.909    3.260   34.859   27.684    7.222   -0.005    1.503 
15069  531.343    3.909    3.260   34.859   27.684    7.222   -0.005    1.503 
15075  531.548    3.909    3.260   34.859   27.684    7.221   -0.005    1.503 
15081  531.712    3.909    3.260   34.859   27.684    7.221   -0.005    1.505 
15085  531.837    3.909    3.260   34.859   27.684    7.221   -0.005    1.505 
15091  532.023    3.909    3.260   34.859   27.684    7.220   -0.005    1.505 
15100  532.252    3.909    3.260   34.859   27.684    7.220   -0.005    1.505 
15107  532.431    3.909    3.260   34.859   27.684    7.218   -0.005    1.503 
15116  532.699    3.909    3.260   34.859   27.684    7.217   -0.005    1.503 
15123  532.878    3.909    3.260   34.859   27.684    7.217   -0.005    1.503 
15130  533.034    3.908    3.260   34.859   27.684    7.217   -0.005    1.503 
15143  533.343    3.906    3.259   34.859   27.684    7.217   -0.004    1.503 
15160  533.753    3.904    3.259   34.859   27.684    7.217   -0.003    1.503 
15167  533.950    3.898    3.259   34.859   27.685    7.217   -0.003    1.503 
15180  534.248    3.898    3.259   34.859   27.685    7.217   -0.003    1.503 
15190  534.556    3.898    3.259   34.859   27.685    7.217   -0.003    1.503 
15196  534.744    3.897    3.259   34.859   27.685    7.217   -0.003    1.505 
15206  535.075    3.897    3.259   34.859   27.685    7.217   -0.003    1.505 
15210  535.250    3.897    3.259   34.859   27.685    7.217   -0.003    1.505 
15214  535.382    3.895    3.258   34.859   27.685    7.218   -0.003    1.505 
15219  535.595    3.893    3.258   34.860   27.686    7.218   -0.003    1.503 
15227  535.922    3.890    3.258   34.860   27.686    7.221   -0.003    1.503 
15231  536.105    3.887    3.258   34.860   27.687    7.222   -0.003    1.503 
15237  536.351    3.886    3.258   34.860   27.687    7.223   -0.003    1.503 
15240  536.485    3.885    3.258   34.860   27.687    7.223   -0.003    1.503 
15247  536.801    3.884    3.257   34.860   27.687    7.223   -0.003    1.503 
15252  537.023    3.881    3.257   34.860   27.687    7.224   -0.003    1.503 
15263  537.507    3.880    3.257   34.860   27.687    7.225   -0.003    1.503 
15268  537.732    3.880    3.257   34.860   27.687    7.225   -0.003    1.505 
15272  537.870    3.879    3.257   34.860   27.688    7.225   -0.003    1.505 
15279  538.179    3.878    3.257   34.860   27.688    7.225   -0.003    1.505 
15283  538.365    3.877    3.257   34.860   27.688    7.225   -0.004    1.505 
15288  538.561    3.876    3.257   34.860   27.688    7.225   -0.004    1.503 
15292  538.734    3.876    3.257   34.860   27.688    7.225   -0.004    1.505 
15300  539.043    3.876    3.257   34.860   27.688    7.225   -0.004    1.503 
15314  539.490    3.876    3.257   34.860   27.688    7.226   -0.004    1.503 
15334  540.088    3.875    3.257   34.860   27.688    7.226   -0.004    1.503 
15350  540.497    3.875    3.257   34.860   27.688    7.227   -0.004    1.503 
15368  540.914    3.875    3.257   34.860   27.688    7.228   -0.005    1.503 
15390  541.402    3.875    3.257   34.860   27.688    7.228   -0.005    1.503 
15409  541.927    3.875    3.257   34.860   27.688    7.229   -0.005    1.503 
15421  542.313    3.875    3.257   34.860   27.688    7.229   -0.005    1.503 
15434  542.791    3.875    3.257   34.860   27.688    7.230   -0.005    1.503 
15441  543.063    3.875    3.257   34.860   27.688    7.230   -0.005    1.503 
15449  543.398    3.875    3.257   34.860   27.688    7.230   -0.005    1.503 
15458  543.735    3.874    3.257   34.860   27.688    7.230   -0.005    1.503 
15464  543.999    3.874    3.257   34.860   27.688    7.230   -0.005    1.503 
15478  544.547    3.874    3.257   34.859   27.687    7.230   -0.005    1.503 
15483  544.757    3.874    3.257   34.859   27.687    7.230   -0.005    1.503 
15492  545.157    3.874    3.257   34.859   27.687    7.230   -0.005    1.503 
15501  545.517    3.874    3.257   34.859   27.687    7.230   -0.005    1.503 
15508  545.764    3.874    3.257   34.859   27.687    7.230   -0.005    1.503 
15523  546.406    3.874    3.257   34.859   27.687    7.231   -0.005    1.503 
15533  546.803    3.874    3.257   34.859   27.687    7.231   -0.004    1.503 
15543  547.179    3.874    3.257   34.859   27.687    7.232   -0.004    1.503 
15552  547.514    3.874    3.257   34.859   27.687    7.232   -0.004    1.503 
15558  547.721    3.874    3.257   34.859   27.687    7.232   -0.003    1.503 
15569  548.097    3.874    3.257   34.859   27.687    7.232   -0.003    1.503 
15574  548.257    3.874    3.257   34.859   27.687    7.232   -0.003    1.505 
15583  548.512    3.874    3.257   34.859   27.687    7.232   -0.003    1.505 
15602  548.992    3.874    3.257   34.859   27.687    7.232   -0.003    1.503 
15613  549.249    3.874    3.257   34.859   27.687    7.232   -0.003    1.505 
15633  549.690    3.874    3.257   34.859   27.687    7.232   -0.003    1.505 
15650  550.126    3.874    3.257   34.859   27.687    7.232   -0.004    1.505 
15662  550.463    3.874    3.257   34.859   27.687    7.233   -0.004    1.505 
15669  550.710    3.874    3.257   34.859   27.687    7.233   -0.004    1.505 
15680  551.071    3.874    3.257   34.859   27.687    7.233   -0.004    1.503 
15686  551.319    3.874    3.257   34.859   27.687    7.233   -0.004    1.505 
15690  551.494    3.874    3.257   34.859   27.687    7.232   -0.003    1.505 
15695  551.702    3.874    3.257   34.859   27.687    7.232   -0.003    1.505 
15704  552.076    3.874    3.257   34.859   27.687    7.232   -0.003    1.505 
15710  552.359    3.874    3.257   34.859   27.687    7.232   -0.003    1.505 
15714  552.516    3.874    3.257   34.859   27.687    7.233   -0.003    1.505 
15721  552.821    3.874    3.257   34.859   27.687    7.233   -0.003    1.503 
15726  553.029    3.874    3.257   34.859   27.687    7.233   -0.003    1.505 
15733  553.325    3.874    3.257   34.859   27.687    7.232   -0.003    1.503 
15744  553.772    3.874    3.257   34.859   27.687    7.232   -0.003    1.503 
15751  554.059    3.874    3.257   34.859   27.687    7.232   -0.003    1.503 
15760  554.364    3.874    3.257   34.859   27.687    7.232   -0.002    1.503 
15765  554.526    3.874    3.257   34.859   27.687    7.232   -0.002    1.503 
15768  554.628    3.874    3.257   34.859   27.687    7.232   -0.002    1.503 
15771  554.725    3.874    3.257   34.859   27.687    7.232   -0.002    1.503 
15775  554.844    3.874    3.257   34.859   27.687    7.232   -0.002    1.503 
15787  555.224    3.874    3.258   34.859   27.687    7.232   -0.002    1.503 
15795  555.481    3.874    3.258   34.859   27.687    7.232   -0.002    1.503 
15804  555.736    3.874    3.258   34.859   27.687    7.231   -0.002    1.503 
15810  555.907    3.874    3.258   34.859   27.687    7.231   -0.002    1.503 
15814  556.030    3.874    3.258   34.859   27.687    7.231   -0.002    1.503 
15821  556.227    3.874    3.258   34.859   27.687    7.231   -0.002    1.503 
15825  556.339    3.874    3.258   34.859   27.687    7.231   -0.002    1.503 
15832  556.532    3.874    3.258   34.859   27.687    7.231   -0.003    1.503 
15837  556.659    3.874    3.258   34.859   27.687    7.231   -0.004    1.503 
15846  556.884    3.874    3.258   34.859   27.687    7.231   -0.005    1.503 
15857  557.187    3.874    3.258   34.859   27.687    7.231   -0.005    1.503 
15863  557.344    3.874    3.258   34.859   27.687    7.231   -0.005    1.503 
15871  557.569    3.874    3.258   34.859   27.687    7.231   -0.005    1.503 
15880  557.815    3.874    3.258   34.859   27.687    7.231   -0.005    1.503 
15890  558.070    3.874    3.258   34.859   27.687    7.231   -0.005    1.503 
15894  558.196    3.874    3.258   34.859   27.687    7.231   -0.005    1.503 
15899  558.345    3.874    3.258   34.859   27.687    7.232   -0.005    1.503 
15907  558.609    3.874    3.258   34.859   27.687    7.232   -0.005    1.503 
15914  558.816    3.874    3.258   34.859   27.687    7.232   -0.005    1.503 
15922  559.106    3.874    3.258   34.859   27.687    7.232   -0.005    1.503 
15926  559.235    3.874    3.258   34.859   27.687    7.233   -0.005    1.503 
15933  559.480    3.874    3.258   34.859   27.687    7.233   -0.005    1.503 
15937  559.618    3.874    3.258   34.859   27.687    7.232   -0.005    1.503 
15940  559.719    3.874    3.258   34.859   27.687    7.232   -0.004    1.503 
15944  559.847    3.874    3.258   34.859   27.687    7.232   -0.004    1.503 
15949  560.050    3.874    3.258   34.859   27.687    7.232   -0.004    1.505 
15954  560.247    3.874    3.258   34.859   27.687    7.232   -0.004    1.503 
15958  560.390    3.873    3.258   34.859   27.687    7.232   -0.004    1.503 
15966  560.688    3.873    3.258   34.859   27.687    7.232   -0.004    1.503 
15972  560.951    3.873    3.258   34.859   27.687    7.232   -0.004    1.503 
15976  561.109    3.873    3.258   34.859   27.687    7.232   -0.004    1.503 
15979  561.217    3.873    3.258   34.859   27.687    7.231   -0.005    1.503 
15982  561.349    3.873    3.258   34.859   27.687    7.229   -0.005    1.503 
15985  561.472    3.873    3.258   34.859   27.687    7.229   -0.005    1.503 
15988  561.585    3.873    3.258   34.859   27.687    7.229   -0.005    1.503 
15991  561.719    3.873    3.258   34.859   27.687    7.229   -0.005    1.503 
15994  561.842    3.873    3.258   34.859   27.687    7.229   -0.005    1.503 
16008  562.374    3.873    3.258   34.859   27.687    7.229   -0.005    1.503 
16015  562.622    3.873    3.258   34.859   27.687    7.229   -0.005    1.503 
16019  562.774    3.873    3.258   34.859   27.687    7.229   -0.005    1.503 
16024  562.944    3.873    3.258   34.859   27.687    7.229   -0.005    1.503 
16029  563.109    3.873    3.258   34.859   27.687    7.229   -0.005    1.503 
16032  563.184    3.873    3.258   34.859   27.687    7.229   -0.005    1.503 
16041  563.444    3.873    3.258   34.859   27.687    7.230   -0.005    1.503 
16044  563.521    3.873    3.258   34.859   27.687    7.230   -0.005    1.503 
16047  563.588    3.873    3.258   34.859   27.687    7.230   -0.005    1.503 
16053  563.764    3.873    3.258   34.859   27.687    7.230   -0.005    1.503 
16058  563.889    3.873    3.258   34.859   27.687    7.230   -0.005    1.503 
16063  564.003    3.873    3.258   34.859   27.687    7.230   -0.005    1.503 
16068  564.144    3.873    3.258   34.859   27.687    7.230   -0.005    1.503 
16072  564.243    3.873    3.258   34.859   27.687    7.230   -0.005    1.503 
16077  564.434    3.873    3.258   34.859   27.687    7.231   -0.004    1.503 
16082  564.559    3.873    3.258   34.859   27.687    7.231   -0.004    1.503 
16087  564.751    3.873    3.258   34.859   27.687    7.231   -0.004    1.503 
16091  564.901    3.873    3.258   34.859   27.687    7.231   -0.004    1.503 
16094  565.024    3.873    3.258   34.859   27.687    7.231   -0.004    1.503 
16097  565.140    3.873    3.258   34.859   27.687    7.231   -0.004    1.503 
16106  565.519    3.873    3.258   34.859   27.687    7.231   -0.005    1.503 
16114  565.897    3.873    3.258   34.859   27.687    7.231   -0.005    1.503 
16123  566.241    3.873    3.258   34.859   27.687    7.231   -0.004    1.503 
16128  566.437    3.873    3.258   34.859   27.687    7.231   -0.004    1.503 
16133  566.656    3.873    3.258   34.859   27.687    7.231   -0.004    1.503 
16139  566.848    3.873    3.258   34.859   27.687    7.231   -0.004    1.503 
16146  567.045    3.873    3.258   34.859   27.687    7.230   -0.004    1.503 
16150  567.153    3.873    3.258   34.859   27.687    7.230   -0.004    1.503 
16164  567.443    3.873    3.258   34.859   27.687    7.230   -0.004    1.503 
16177  567.663    3.873    3.258   34.859   27.687    7.229   -0.004    1.503 
16188  567.855    3.873    3.258   34.859   27.687    7.229   -0.004    1.503 
16193  567.953    3.873    3.258   34.859   27.687    7.229   -0.004    1.503 
16201  568.128    3.873    3.258   34.859   27.687    7.229   -0.005    1.503 
16207  568.275    3.873    3.258   34.859   27.687    7.229   -0.005    1.503 
16214  568.532    3.873    3.258   34.859   27.687    7.229   -0.005    1.503 
16221  568.740    3.873    3.258   34.859   27.687    7.229   -0.005    1.503 
16231  569.148    3.873    3.258   34.859   27.687    7.229   -0.005    1.503 
16241  569.585    3.873    3.258   34.859   27.687    7.229   -0.005    1.503 
16245  569.762    3.873    3.258   34.859   27.687    7.228   -0.005    1.503 
16248  569.892    3.873    3.258   34.859   27.687    7.229   -0.005    1.503 
16251  570.034    3.873    3.258   34.859   27.687    7.229   -0.005    1.503 
16255  570.227    3.873    3.258   34.859   27.687    7.229   -0.005    1.503 
16266  570.659    3.873    3.258   34.859   27.687    7.229   -0.005    1.503 
16271  570.865    3.873    3.258   34.859   27.687    7.229   -0.005    1.503 
16278  571.105    3.873    3.258   34.859   27.687    7.229   -0.005    1.503 
16282  571.234    3.873    3.258   34.859   27.687    7.229   -0.005    1.503 
16287  571.379    3.873    3.258   34.859   27.687    7.229   -0.005    1.503 
16294  571.574    3.873    3.258   34.859   27.687    7.229   -0.005    1.503 
16304  571.827    3.872    3.258   34.859   27.687    7.230   -0.005    1.503 
16314  572.101    3.870    3.258   34.859   27.688    7.230   -0.005    1.503 
16328  572.549    3.870    3.258   34.859   27.688    7.230   -0.005    1.503 
16340  572.966    3.870    3.258   34.859   27.688    7.230   -0.005    1.503 
16348  573.299    3.870    3.258   34.859   27.688    7.231   -0.005    1.503 
16351  573.444    3.870    3.258   34.859   27.688    7.232   -0.005    1.503 
16355  573.621    3.869    3.258   34.859   27.688    7.232   -0.005    1.503 
16359  573.781    3.869    3.258   34.859   27.688    7.232   -0.005    1.503 
16362  573.909    3.869    3.258   34.859   27.688    7.232   -0.005    1.503 
16367  574.131    3.869    3.258   34.859   27.688    7.232   -0.005    1.503 
16370  574.261    3.869    3.258   34.859   27.688    7.232   -0.005    1.503 
16375  574.486    3.869    3.258   34.859   27.688    7.232   -0.005    1.503 
16383  574.786    3.868    3.258   34.859   27.688    7.232   -0.005    1.503 
16389  575.044    3.868    3.258   34.859   27.688    7.232   -0.005    1.503 
16400  575.441    3.868    3.258   34.859   27.688    7.232   -0.005    1.503 
16414  575.876    3.868    3.258   34.859   27.688    7.232   -0.005    1.503 
16420  576.036    3.868    3.258   34.859   27.688    7.232   -0.005    1.503 
16434  576.404    3.868    3.258   34.859   27.688    7.231   -0.005    1.503 
16456  576.946    3.868    3.258   34.859   27.688    7.231   -0.005    1.503 
16473  577.348    3.868    3.258   34.859   27.688    7.230   -0.005    1.503 
16487  577.668    3.868    3.258   34.859   27.688    7.230   -0.005    1.503 
16510  578.215    3.868    3.258   34.859   27.688    7.230   -0.005    1.503 
16523  578.566    3.868    3.258   34.859   27.688    7.230   -0.005    1.503 
16534  578.903    3.868    3.258   34.859   27.688    7.230   -0.005    1.505 
16542  579.206    3.868    3.258   34.859   27.688    7.229   -0.005    1.503 
16546  579.381    3.868    3.258   34.859   27.688    7.229   -0.005    1.503 
16550  579.543    3.868    3.258   34.859   27.688    7.229   -0.005    1.503 
16555  579.781    3.869    3.258   34.859   27.688    7.229   -0.005    1.503 
16565  580.278    3.869    3.258   34.859   27.688    7.229   -0.005    1.503 
16572  580.613    3.869    3.258   34.859   27.688    7.229   -0.005    1.503 
16578  580.933    3.869    3.258   34.859   27.688    7.229   -0.005    1.503 
16581  581.078    3.869    3.258   34.859   27.688    7.229   -0.005    1.503 
16585  581.288    3.869    3.258   34.859   27.688    7.229   -0.005    1.503 
16589  581.511    3.869    3.258   34.859   27.688    7.229   -0.005    1.503 
16592  581.653    3.869    3.258   34.859   27.688    7.229   -0.005    1.503 
16601  582.136    3.869    3.258   34.859   27.688    7.229   -0.005    1.503 
16617  582.838    3.869    3.258   34.859   27.688    7.229   -0.005    1.503 
16624  583.063    3.869    3.258   34.859   27.688    7.229   -0.005    1.503 
16666  584.041    3.869    3.258   34.859   27.688    7.229   -0.005    1.503 
16705  584.903    3.869    3.258   34.859   27.688    7.229   -0.005    1.503 
16720  585.368    3.869    3.258   34.859   27.688    7.229   -0.005    1.503 
16728  585.641    3.869    3.258   34.859   27.688    7.229   -0.004    1.503 
16740  586.073    3.869    3.258   34.859   27.688    7.229   -0.004    1.503 
16753  586.616    3.869    3.258   34.859   27.688    7.229   -0.004    1.503 
16762  586.953    3.869    3.258   34.859   27.688    7.229   -0.004    1.503 
16771  587.306    3.869    3.258   34.859   27.688    7.229   -0.004    1.503 
16788  587.961    3.869    3.258   34.859   27.688    7.229   -0.003    1.503 
16798  588.314    3.869    3.258   34.859   27.688    7.228   -0.003    1.503 
16802  588.444    3.869    3.258   34.859   27.688    7.228   -0.003    1.503 
16806  588.584    3.869    3.259   34.859   27.688    7.228   -0.003    1.503 
16812  588.779    3.869    3.259   34.859   27.688    7.228   -0.003    1.503 
16818  588.986    3.869    3.259   34.859   27.688    7.228   -0.003    1.503 
16827  589.274    3.869    3.259   34.859   27.688    7.228   -0.003    1.503 
16835  589.529    3.869    3.259   34.859   27.688    7.228   -0.003    1.503 
16844  589.771    3.869    3.259   34.859   27.688    7.228   -0.004    1.503 
16852  590.040    3.869    3.259   34.859   27.688    7.228   -0.004    1.503 
16858  590.252    3.869    3.259   34.859   27.688    7.228   -0.004    1.503 
16873  590.766    3.869    3.259   34.859   27.688    7.228   -0.004    1.503 
16880  591.019    3.869    3.259   34.859   27.688    7.228   -0.004    1.503 
16888  591.305    3.869    3.259   34.859   27.688    7.228   -0.004    1.503 
16893  591.502    3.869    3.259   34.859   27.688    7.228   -0.004    1.503 
16896  591.627    3.869    3.259   34.859   27.688    7.228   -0.004    1.503 
16899  591.740    3.869    3.259   34.859   27.688    7.228   -0.004    1.503 
16907  592.055    3.869    3.259   34.859   27.688    7.228   -0.005    1.503 
16916  592.423    3.869    3.259   34.859   27.688    7.228   -0.005    1.503 
16925  592.795    3.869    3.259   34.859   27.688    7.228   -0.005    1.503 
16929  592.974    3.869    3.259   34.859   27.688    7.228   -0.005    1.503 
16934  593.145    3.869    3.259   34.859   27.688    7.228   -0.005    1.503 
16939  593.344    3.869    3.259   34.859   27.688    7.228   -0.005    1.503 
16946  593.595    3.869    3.259   34.859   27.688    7.228   -0.005    1.503 
16950  593.757    3.869    3.259   34.859   27.688    7.228   -0.005    1.503 
16953  593.850    3.869    3.259   34.859   27.688    7.229   -0.005    1.503 
16957  593.967    3.869    3.259   34.859   27.688    7.229   -0.005    1.503 
16971  594.352    3.869    3.259   34.859   27.688    7.229   -0.005    1.503 
16977  594.506    3.869    3.259   34.859   27.688    7.230   -0.005    1.503 
16989  594.713    3.869    3.259   34.859   27.688    7.230   -0.005    1.503 
17001  594.893    3.869    3.259   34.859   27.688    7.230   -0.005    1.503 
17022  595.274    3.869    3.259   34.859   27.688    7.230   -0.005    1.503 
17058  595.561    3.869    3.259   34.860   27.688    7.230   -0.004    1.503 
17085  595.886    3.869    3.259   34.859   27.688    7.230   -0.004    1.503 
17101  596.096    3.869    3.259   34.859   27.688    7.230   -0.004    1.503 
17136  596.398    3.869    3.259   34.860   27.688    7.230   -0.004    1.503 
17293  596.623    3.870    3.259   34.859   27.688    7.230   -0.004    1.503 
17357  596.827    3.870    3.259   34.859   27.688    7.230   -0.004    1.503 
17371  597.039    3.870    3.259   34.859   27.688    7.229   -0.004    1.503 
