NAFC_Y2K_HEADER
39673014  52 28.95 -047 11.71 2006-06-13 19:40 3873 S0281 014 V   stn 14       1
39673014 002535  8.00 A 08 #PTCSMFL------------            D 000 0000 0474 000 4
39673014 8 32 18 02 1008.0 009.5 008.0 04 04 27 07 06                          8
-- CHANNEL STATS -->
# span     scan =   2745.000,  7677.000
# span     pres =      1.420,   474.835
# span     temp =      4.021,     9.464
# span     cond =      3.251,     3.717
# span      sal =     34.480,    34.881
# span     sigt =     26.636,    27.673
# span     flor =      0.278,    10.663
# span      par =      0.967,   187.270
-- END --
-- HISTORY --> Thu Jun 22 14:23:06 2006
>SELECT_PROBE S
>READ # (DP) T C L F scan pres temp cond par flor
>STABILIZE_RESTRICT USING= pres 10.0 5 
>RESTRICT USING= pres 0.0 2000.0
>RESTRICT USING= cond 2.0 5.0
>RESTRICT USING= temp -2.0 20.0
>RESTRICT USING= scan 500.0 30000.0
>MEDIANFILTER pres 21 1
>MEDIANFILTER temp 21 1
>MEDIANFILTER cond 21 1
>MEDIANFILTER flor 21 1
>MEDIANFILTER par 21 1
>SELECT_DN USING= pres
>SALINITY PRESSURE=pres CONDUCTIVITY=cond TEMPERATURE=temp RESULT=sal
>RESTRICT USING= sal 29.0 36.0
>MEDIANFILTER sal 21 1
>SIGMAT SALINITY=sal TEMPERATURE=temp RESULT=sigt
>MEDIANFILTER sigt 21 1
>HISTORY_ON
>WRITEFILE .p???? scan pres temp cond sal sigt flor par
-- END --
 scan     pres     temp     cond      sal     sigt     flor      par 
-- DATA --
 2745    1.420    9.464    3.708   34.480   26.636    6.806  187.270 
 2746    1.593    9.464    3.715   34.552   26.693    6.435  181.810 
 2750    1.767    9.463    3.716   34.563   26.701    6.946  158.560 
 2753    2.114    9.464    3.716   34.562   26.700    7.596  147.800 
 2754    2.288    9.463    3.716   34.563   26.701    6.946  139.830 
 2755    2.462    9.463    3.716   34.563   26.701    6.923  132.280 
 2756    2.635    9.463    3.716   34.563   26.701    6.923  126.540 
 2757    2.809    9.463    3.716   34.563   26.701    6.923  121.950 
 2759    2.982    9.463    3.716   34.563   26.701    6.946  114.520 
 2760    3.156    9.463    3.716   34.563   26.701    6.946  110.770 
 2762    3.330    9.462    3.716   34.564   26.702    6.969  103.250 
 2763    3.503    9.462    3.716   34.564   26.702    7.015   99.875 
 2765    3.677    9.462    3.716   34.564   26.702    7.039   93.444 
 2766    3.851    9.460    3.716   34.565   26.703    7.062   89.719 
 2768    4.024    9.460    3.716   34.565   26.703    7.085   83.323 
 2770    4.198    9.458    3.716   34.567   26.705    7.085   78.246 
 2772    4.372    9.457    3.716   34.568   26.706    7.085   74.574 
 2773    4.545    9.457    3.716   34.568   26.706    7.085   73.208 
 2775    4.719    9.457    3.716   34.568   26.706    7.085   70.811 
 2777    4.893    9.456    3.716   34.568   26.706    7.085   68.747 
 2779    5.066    9.455    3.716   34.568   26.706    7.085   65.763 
 2781    5.240    9.455    3.716   34.568   26.706    7.085   63.142 
 2782    5.414    9.455    3.716   34.568   26.706    7.108   61.757 
 2784    5.587    9.455    3.716   34.568   26.706    7.108   59.295 
 2786    5.761    9.455    3.716   34.568   26.706    7.108   56.931 
 2788    5.935    9.455    3.716   34.568   26.706    7.108   55.682 
 2791    6.108    9.456    3.716   34.568   26.706    7.155   54.865 
 2793    6.282    9.456    3.716   34.568   26.706    7.155   54.865 
 2796    6.456    9.456    3.716   34.568   26.706    7.201   54.059 
 2797    6.629    9.456    3.716   34.568   26.706    7.178   53.463 
 2800    6.803    9.456    3.716   34.568   26.706    7.178   51.713 
 2802    6.977    9.456    3.716   34.568   26.706    7.201   49.652 
 2804    7.150    9.456    3.716   34.568   26.706    7.201   47.849 
 2805    7.324    9.456    3.716   34.568   26.706    7.201   46.799 
 2807    7.497    9.456    3.716   34.568   26.706    7.225   45.100 
 2809    7.671    9.456    3.716   34.567   26.706    7.225   43.624 
 2810    7.845    9.456    3.716   34.567   26.706    7.294   42.983 
 2812    8.018    9.456    3.716   34.567   26.706    7.480   41.730 
 2813    8.192    9.456    3.716   34.567   26.706    7.573   41.118 
 2815    8.366    9.456    3.716   34.567   26.705    7.643   39.772 
 2816    8.539    9.456    3.716   34.567   26.705    7.643   39.188 
 2818    8.713    9.456    3.716   34.567   26.705    7.712   37.765 
 2819    8.887    9.456    3.716   34.567   26.705    7.829   37.073 
 2821    9.060    9.456    3.716   34.567   26.705    7.968   35.728 
 2823    9.234    9.456    3.716   34.567   26.705    8.061   34.303 
 2826    9.408    9.457    3.716   34.567   26.705    8.433   32.213 
 2828    9.581    9.457    3.716   34.567   26.705    8.967   31.159 
 2830    9.755    9.458    3.716   34.567   26.705    9.106   30.028 
 2834    9.929    9.460    3.716   34.567   26.705    9.594   28.198 
 2837   10.102    9.461    3.716   34.567   26.705    9.641   27.074 
 2839   10.276    9.462    3.717   34.570   26.707    9.734   26.382 
 2841   10.450    9.462    3.717   34.570   26.707    9.827   25.708 
 2842   10.623    9.462    3.717   34.571   26.707    9.850   25.331 
 2844   10.797    9.462    3.717   34.571   26.707    9.850   24.502 
 2845   10.971    9.462    3.717   34.571   26.707    9.850   24.142 
 2847   11.318    9.462    3.717   34.571   26.707    9.920   23.438 
 2849   11.491    9.461    3.717   34.571   26.708    9.966   22.755 
 2850   11.665    9.460    3.717   34.572   26.708   10.012   22.338 
 2851   11.839    9.460    3.717   34.572   26.708   10.059   22.010 
 2853   12.012    9.460    3.717   34.572   26.708   10.152   21.133 
 2854   12.186    9.460    3.717   34.572   26.709   10.268   20.746 
 2855   12.360    9.460    3.717   34.572   26.709   10.291   20.366 
 2856   12.533    9.460    3.717   34.572   26.709   10.314   19.993 
 2858   12.707    9.459    3.717   34.572   26.709   10.314   19.125 
 2859   12.881    9.458    3.717   34.572   26.709   10.291   18.636 
 2860   13.054    9.458    3.717   34.572   26.709   10.314   18.160 
 2861   13.228    9.458    3.717   34.572   26.709   10.314   17.761 
 2862   13.402    9.458    3.717   34.573   26.709   10.338   17.308 
 2864   13.575    9.457    3.717   34.573   26.709   10.407   16.434 
 2865   13.749    9.457    3.717   34.573   26.709   10.338   16.014 
 2866   13.923    9.457    3.717   34.573   26.709   10.384   15.548 
 2868   14.096    9.458    3.717   34.573   26.709   10.361   14.818 
 2870   14.270    9.458    3.717   34.573   26.709   10.338   14.070 
 2871   14.443    9.459    3.717   34.573   26.710   10.314   13.813 
 2874   14.617    9.459    3.717   34.573   26.710   10.291   13.019 
 2876   14.791    9.459    3.717   34.573   26.710   10.222   12.640 
 2880   14.964    9.458    3.717   34.573   26.710   10.222   12.091 
 2886   15.138    9.457    3.717   34.572   26.710   10.222   11.652 
 2889   15.312    9.457    3.717   34.572   26.710   10.222   11.566 
 2892   15.485    9.455    3.717   34.572   26.710   10.291   11.312 
 2894   15.659    9.455    3.717   34.572   26.710   10.338   11.064 
 2896   15.833    9.451    3.716   34.572   26.710   10.431   10.781 
 2897   16.006    9.451    3.716   34.572   26.710   10.477   10.662 
 2899   16.180    9.448    3.716   34.572   26.710   10.570   10.275 
 2900   16.354    9.448    3.716   34.572   26.711   10.500   10.125 
 2902   16.527    9.448    3.716   34.572   26.711   10.500    9.721 
 2903   16.701    9.447    3.716   34.573   26.711   10.524    9.473 
 2904   16.875    9.447    3.716   34.573   26.711   10.593    9.231 
 2905   17.048    9.447    3.716   34.573   26.711   10.593    9.028 
 2906   17.222    9.447    3.716   34.572   26.711   10.593    8.797 
 2907   17.395    9.446    3.716   34.572   26.711   10.593    8.573 
 2908   17.743    9.444    3.716   34.572   26.712   10.593    8.323 
 2910   17.916    9.443    3.716   34.573   26.712   10.593    7.787 
 2911   18.090    9.441    3.716   34.574   26.713   10.593    7.588 
 2912   18.264    9.440    3.716   34.574   26.714   10.593    7.312 
 2913   18.437    9.439    3.716   34.575   26.715   10.593    7.073 
 2914   18.611    9.439    3.716   34.577   26.716   10.663    6.816 
 2916   18.958    9.438    3.716   34.578   26.717   10.663    6.448 
 2918   19.132    9.436    3.715   34.579   26.718   10.593    6.078 
 2919   19.306    9.436    3.715   34.579   26.718   10.593    5.901 
 2920   19.479    9.433    3.715   34.580   26.719   10.570    5.750 
 2922   19.653    9.397    3.713   34.585   26.729   10.570    5.521 
 2925   19.826    9.361    3.710   34.587   26.737   10.500    5.320 
 2928   20.000    9.342    3.708   34.587   26.740   10.500    5.204 
 2934   20.174    9.333    3.707   34.587   26.741   10.500    5.146 
 2940   20.347    9.324    3.706   34.588   26.743   10.524    5.127 
 2943   20.521    9.322    3.706   34.588   26.744   10.524    5.033 
 2945   20.695    9.321    3.706   34.588   26.744   10.454    4.959 
 2946   20.868    9.321    3.706   34.589   26.745   10.454    4.887 
 2947   21.042    9.315    3.706   34.591   26.748   10.454    4.797 
 2949   21.389    9.311    3.705   34.594   26.750   10.268    4.589 
 2951   21.737    9.231    3.701   34.614   26.779   10.036    4.373 
 2953   22.084    9.150    3.694   34.623   26.799    9.803    4.153 
 2954   22.257    9.127    3.692   34.626   26.806    9.664    4.047 
 2955   22.431    9.111    3.689   34.626   26.808    9.501    3.943 
 2956   22.605    9.092    3.689   34.626   26.811    9.478    3.842 
 2957   22.778    9.026    3.684   34.628   26.823    9.432    3.730 
 2958   22.952    8.967    3.680   34.628   26.833    9.362    3.622 
 2960   23.299    8.903    3.672   34.630   26.844    8.758    3.452 
 2962   23.473    8.832    3.667   34.630   26.855    8.711    3.314 
 2963   23.647    8.793    3.663   34.630   26.862    8.618    3.241 
 2965   23.820    8.725    3.656   34.630   26.872    8.526    3.135 
 2966   23.994    8.713    3.654   34.630   26.874    8.502    3.089 
 2968   24.168    8.710    3.653   34.630   26.875    8.409    3.022 
 2971   24.341    8.710    3.653   34.632   26.876    8.177    2.977 
 2978   24.515    8.699    3.652   34.632   26.878    7.805    2.966 
 2986   24.688    8.605    3.645   34.633   26.893    6.295    2.944 
 2988   24.862    8.579    3.641   34.632   26.897    5.343    2.901 
 2990   25.036    8.531    3.638   34.632   26.903    5.017    2.838 
 2991   25.209    8.525    3.636   34.630   26.903    5.017    2.806 
 2992   25.383    8.524    3.636   34.629   26.903    4.808    2.786 
 2993   25.557    8.523    3.636   34.629   26.903    4.715    2.724 
 2994   25.904    8.523    3.636   34.629   26.904    4.599    2.714 
 2995   26.078    8.522    3.636   34.629   26.904    4.553    2.684 
 2996   26.251    8.520    3.636   34.629   26.904    4.460    2.635 
 2997   26.425    8.519    3.636   34.629   26.904    4.413    2.577 
 2998   26.598    8.518    3.636   34.630   26.904    4.367    2.521 
 2999   26.946    8.514    3.635   34.630   26.905    4.344    2.475 
 3000   27.119    8.509    3.635   34.630   26.906    4.320    2.429 
 3001   27.467    8.503    3.634   34.630   26.907    4.320    2.376 
 3002   27.640    8.501    3.634   34.630   26.907    4.251    2.341 
 3003   27.814    8.501    3.634   34.630   26.907    4.251    2.290 
 3004   27.988    8.500    3.634   34.630   26.907    4.251    2.264 
 3005   28.161    8.499    3.634   34.630   26.907    4.251    2.215 
 3006   28.335    8.497    3.634   34.629   26.907    4.251    2.182 
 3007   28.682    8.493    3.633   34.629   26.908    4.251    2.150 
 3010   28.856    8.488    3.633   34.629   26.909    4.251    2.080 
 3011   29.029    8.488    3.633   34.629   26.909    4.251    2.065 
 3013   29.203    8.488    3.633   34.630   26.909    4.251    2.057 
 3036   29.377    8.473    3.631   34.630   26.911    3.577    2.080 
 3038   29.550    8.462    3.630   34.630   26.913    3.228    2.049 
 3039   29.724    8.459    3.630   34.630   26.914    3.205    2.034 
 3040   29.898    8.456    3.630   34.630   26.915    3.182    2.012 
 3041   30.071    8.450    3.629   34.630   26.916    3.112    1.968 
 3042   30.245    8.442    3.628   34.631   26.917    3.066    1.960 
 3043   30.418    8.428    3.628   34.631   26.919    2.694    1.932 
 3044   30.766    8.400    3.625   34.634   26.926    2.694    1.896 
 3045   30.939    8.375    3.623   34.635   26.931    2.508    1.875 
 3046   31.287    8.362    3.622   34.635   26.933    2.346    1.862 
 3047   31.460    8.352    3.621   34.636   26.935    2.322    1.827 
 3048   31.808    8.340    3.620   34.636   26.937    2.276    1.814 
 3049   31.981    8.339    3.620   34.637   26.938    2.206    1.774 
 3050   32.328    8.337    3.620   34.639   26.939    2.183    1.768 
 3051   32.502    8.336    3.620   34.639   26.940    2.183    1.748 
 3052   32.849    8.335    3.620   34.640   26.941    2.183    1.729 
 3053   33.370    8.330    3.620   34.640   26.942    2.137    1.716 
 3055   33.718    8.326    3.619   34.641   26.943    2.113    1.685 
 3056   33.891    8.324    3.619   34.641   26.943    2.113    1.672 
 3057   34.065    8.323    3.619   34.644   26.946    2.113    1.654 
 3058   34.238    8.320    3.619   34.645   26.947    2.113    1.654 
 3060   34.412    8.305    3.618   34.648   26.952    2.113    1.623 
 3061   34.586    8.305    3.618   34.648   26.952    2.137    1.612 
 3063   34.759    8.305    3.618   34.648   26.952    2.206    1.600 
 3064   34.933    8.305    3.618   34.648   26.952    2.206    1.600 
 3065   35.107    8.305    3.618   34.648   26.952    2.206    1.600 
 3089   35.280    8.272    3.615   34.648   26.957    2.160    1.629 
 3092   35.627    8.249    3.613   34.650   26.961    2.113    1.617 
 3094   35.975    8.245    3.613   34.650   26.962    2.044    1.588 
 3095   36.148    8.245    3.613   34.653   26.964    2.044    1.576 
 3096   36.322    8.245    3.613   34.653   26.964    2.020    1.564 
 3097   36.496    8.245    3.613   34.653   26.964    1.997    1.541 
 3098   36.669    8.245    3.613   34.653   26.965    1.997    1.541 
 3099   36.843    8.245    3.613   34.653   26.965    1.974    1.525 
 3100   37.190    8.245    3.613   34.653   26.965    1.974    1.508 
 3101   37.364    8.245    3.613   34.653   26.965    1.974    1.508 
 3102   37.711    8.245    3.613   34.653   26.965    1.974    1.497 
 3104   38.058    8.247    3.614   34.653   26.965    1.951    1.486 
 3105   38.232    8.282    3.616   34.661   26.965    1.904    1.464 
 3106   38.406    8.304    3.621   34.679   26.976    1.904    1.458 
 3107   38.579    8.304    3.622   34.689   26.983    1.904    1.448 
 3108   38.753    8.304    3.622   34.690   26.984    1.904    1.442 
 3109   39.100    8.304    3.622   34.690   26.984    1.881    1.432 
 3110   39.274    8.304    3.622   34.690   26.984    1.881    1.426 
 3112   39.447    8.304    3.622   34.690   26.984    1.904    1.416 
 3114   39.621    8.314    3.623   34.690   26.984    1.904    1.416 
 3115   39.795    8.316    3.624   34.691   26.985    1.928    1.416 
 3118   39.968    8.313    3.623   34.699   26.990    1.951    1.416 
 3131   40.142    8.282    3.621   34.700   26.996    1.974    1.421 
 3137   40.315    8.253    3.619   34.702   27.002    1.928    1.421 
 3139   40.489    8.251    3.619   34.706   27.005    1.858    1.421 
 3140   40.663    8.251    3.619   34.706   27.005    1.858    1.421 
 3141   40.836    8.247    3.618   34.706   27.006    1.858    1.421 
 3143   41.010    8.243    3.618   34.707   27.007    1.858    1.411 
 3144   41.184    8.242    3.618   34.707   27.008    1.858    1.411 
 3145   41.357    8.240    3.618   34.707   27.008    1.835    1.400 
 3146   41.531    8.238    3.618   34.708   27.009    1.858    1.395 
 3147   41.704    8.232    3.617   34.709   27.011    1.835    1.395 
 3148   41.878    8.219    3.616   34.709   27.013    1.835    1.390 
 3149   42.225    8.209    3.615   34.709   27.014    1.835    1.380 
 3151   42.573    8.199    3.615   34.711   27.017    1.811    1.370 
 3152   42.746    8.199    3.614   34.711   27.017    1.788    1.364 
 3154   42.920    8.194    3.614   34.717   27.022    1.765    1.354 
 3155   43.267    8.184    3.614   34.717   27.024    1.742    1.354 
 3156   43.441    8.184    3.614   34.718   27.025    1.718    1.354 
 3158   43.614    8.182    3.614   34.718   27.025    1.718    1.339 
 3159   43.788    8.181    3.614   34.721   27.028    1.695    1.339 
 3160   43.962    8.176    3.613   34.721   27.028    1.649    1.334 
 3161   44.135    8.176    3.613   34.723   27.030    1.625    1.330 
 3162   44.309    8.166    3.612   34.724   27.032    1.556    1.330 
 3163   44.482    8.154    3.612   34.726   27.036    1.556    1.330 
 3164   44.656    8.144    3.611   34.726   27.038    1.509    1.325 
 3166   44.830    8.127    3.610   34.726   27.040    1.486    1.325 
 3167   45.003    8.122    3.609   34.727   27.041    1.486    1.325 
 3169   45.177    8.118    3.609   34.728   27.042    1.463    1.320 
 3171   45.351    8.113    3.608   34.728   27.043    1.440    1.315 
 3173   45.524    8.112    3.608   34.728   27.043    1.486    1.315 
 3175   45.698    8.111    3.608   34.728   27.044    1.463    1.310 
 3178   45.871    8.111    3.608   34.728   27.044    1.463    1.310 
 3184   46.045    8.111    3.608   34.729   27.044    1.324    1.305 
 3186   46.219    8.112    3.608   34.732   27.047    1.324    1.305 
 3187   46.392    8.112    3.608   34.734   27.048    1.300    1.305 
 3191   46.566    8.112    3.609   34.734   27.048    1.254    1.300 
 3193   46.740    8.112    3.609   34.735   27.049    1.184    1.296 
 3196   46.913    8.112    3.609   34.735   27.049    1.184    1.296 
 3197   47.087    8.112    3.609   34.735   27.049    1.207    1.296 
 3199   47.434    8.111    3.609   34.737   27.051    1.184    1.291 
 3201   47.608    8.110    3.609   34.737   27.051    1.184    1.286 
 3203   47.781    8.104    3.608   34.737   27.052    1.184    1.281 
 3204   47.955    8.100    3.608   34.737   27.052    1.184    1.281 
 3205   48.129    8.097    3.608   34.737   27.053    1.184    1.277 
 3207   48.476    8.076    3.606   34.737   27.056    1.254    1.272 
 3208   48.649    8.059    3.604   34.737   27.059    1.254    1.272 
 3209   48.823    8.042    3.603   34.737   27.061    1.254    1.267 
 3211   49.170    8.016    3.600   34.737   27.065    1.277    1.267 
 3213   49.344    7.994    3.598   34.738   27.069    1.300    1.267 
 3214   49.518    7.981    3.597   34.738   27.071    1.347    1.267 
 3215   49.691    7.971    3.596   34.738   27.073    1.370    1.267 
 3217   50.038    7.957    3.595   34.738   27.075    1.416    1.267 
 3219   50.212    7.944    3.593   34.738   27.077    1.416    1.267 
 3220   50.386    7.936    3.593   34.738   27.078    1.416    1.267 
 3221   50.559    7.926    3.592   34.738   27.080    1.416    1.267 
 3222   50.733    7.919    3.591   34.737   27.080    1.440    1.267 
 3224   50.906    7.911    3.591   34.738   27.082    1.440    1.267 
 3226   51.080    7.903    3.590   34.738   27.083    1.440    1.267 
 3227   51.254    7.899    3.590   34.738   27.084    1.440    1.267 
 3229   51.427    7.890    3.589   34.738   27.085    1.416    1.263 
 3231   51.601    7.866    3.587   34.739   27.089    1.440    1.258 
 3235   51.775    7.859    3.586   34.739   27.090    1.440    1.253 
 3237   51.948    7.857    3.586   34.739   27.091    1.416    1.253 
 3244   52.122    7.853    3.585   34.739   27.091    1.416    1.253 
 3247   52.295    7.843    3.584   34.739   27.093    1.416    1.253 
 3250   52.469    7.829    3.583   34.739   27.095    1.416    1.253 
 3252   52.643    7.822    3.583   34.739   27.096    1.370    1.253 
 3253   52.816    7.821    3.583   34.739   27.096    1.347    1.249 
 3255   52.990    7.798    3.581   34.739   27.099    1.277    1.249 
 3256   53.164    7.794    3.580   34.739   27.100    1.277    1.244 
 3257   53.337    7.782    3.579   34.739   27.102    1.254    1.244 
 3258   53.511    7.760    3.577   34.739   27.105    1.254    1.239 
 3259   53.684    7.749    3.576   34.739   27.107    1.230    1.239 
 3260   53.858    7.745    3.575   34.739   27.107    1.207    1.239 
 3261   54.205    7.743    3.575   34.739   27.108    1.138    1.239 
 3263   54.552    7.738    3.575   34.739   27.108    1.091    1.235 
 3264   54.726    7.736    3.575   34.741   27.109    1.091    1.235 
 3266   55.247    7.731    3.574   34.739   27.110    1.091    1.235 
 3268   55.421    7.723    3.574   34.739   27.110    1.091    1.230 
 3269   55.594    7.716    3.573   34.739   27.112    1.091    1.230 
 3270   55.768    7.711    3.573   34.739   27.112    1.091    1.230 
 3271   55.941    7.710    3.572   34.741   27.114    1.091    1.230 
 3272   56.115    7.701    3.572   34.743   27.116    1.091    1.226 
 3273   56.289    7.690    3.571   34.743   27.118    1.091    1.226 
 3274   56.462    7.674    3.570   34.743   27.120    1.091    1.226 
 3277   56.636    7.619    3.565   34.744   27.129    1.114    1.221 
 3278   56.983    7.609    3.564   34.745   27.131    1.138    1.221 
 3283   57.157    7.609    3.563   34.745   27.132    1.184    1.221 
 3288   57.330    7.587    3.561   34.747   27.136    1.230    1.221 
 3295   57.504    7.455    3.550   34.747   27.156    1.300    1.221 
 3297   57.678    7.452    3.550   34.747   27.156    1.324    1.221 
 3300   57.851    7.433    3.548   34.747   27.159    1.324    1.221 
 3302   58.198    7.427    3.547   34.748   27.160    1.370    1.221 
 3304   58.372    7.421    3.547   34.748   27.161    1.324    1.221 
 3305   58.546    7.420    3.547   34.748   27.161    1.370    1.221 
 3306   58.719    7.413    3.546   34.749   27.163    1.370    1.221 
 3307   58.893    7.409    3.546   34.749   27.164    1.347    1.217 
 3309   59.066    7.404    3.545   34.749   27.165    1.347    1.217 
 3310   59.414    7.402    3.545   34.749   27.165    1.324    1.217 
 3312   59.761    7.392    3.544   34.750   27.167    1.324    1.217 
 3314   59.935    7.382    3.543   34.750   27.169    1.300    1.212 
 3315   60.108    7.375    3.543   34.750   27.170    1.300    1.208 
 3316   60.282    7.367    3.542   34.751   27.171    1.300    1.208 
 3318   60.629    7.348    3.541   34.751   27.174    1.300    1.208 
 3320   60.803    7.324    3.538   34.752   27.178    1.300    1.208 
 3322   60.976    7.312    3.537   34.753   27.181    1.300    1.203 
 3325   61.150    7.289    3.536   34.755   27.185    1.300    1.208 
 3327   61.323    7.285    3.535   34.757   27.188    1.300    1.203 
 3329   61.497    7.280    3.535   34.757   27.189    1.300    1.203 
 3333   61.671    7.275    3.534   34.757   27.189    1.347    1.208 
 3338   61.844    7.271    3.534   34.757   27.190    1.347    1.208 
 3341   62.018    7.271    3.534   34.757   27.190    1.324    1.208 
 3344   62.191    7.269    3.534   34.758   27.191    1.324    1.208 
 3346   62.365    7.265    3.534   34.759   27.192    1.324    1.208 
 3347   62.539    7.258    3.533   34.759   27.193    1.324    1.208 
 3349   62.712    7.244    3.532   34.759   27.195    1.300    1.203 
 3350   62.886    7.236    3.531   34.759   27.196    1.300    1.203 
 3351   63.060    7.228    3.531   34.759   27.197    1.277    1.199 
 3353   63.233    7.203    3.528   34.759   27.201    1.277    1.199 
 3354   63.407    7.197    3.527   34.759   27.202    1.207    1.199 
 3355   63.580    7.195    3.527   34.759   27.202    1.207    1.199 
 3356   63.754    7.193    3.527   34.759   27.203    1.161    1.199 
 3357   63.928    7.192    3.527   34.760   27.203    1.161    1.199 
 3358   64.101    7.191    3.527   34.762   27.205    1.161    1.199 
 3359   64.275    7.188    3.527   34.762   27.205    1.161    1.199 
 3360   64.622    7.185    3.526   34.762   27.206    1.161    1.199 
 3361   64.796    7.182    3.526   34.763   27.207    1.161    1.199 
 3362   64.969    7.178    3.526   34.764   27.208    1.161    1.199 
 3364   65.316    7.165    3.525   34.764   27.210    1.161    1.199 
 3366   65.664    7.150    3.524   34.764   27.212    1.161    1.194 
 3367   65.837    7.148    3.524   34.766   27.214    1.161    1.194 
 3369   66.011    7.146    3.524   34.768   27.216    1.161    1.194 
 3370   66.184    7.146    3.524   34.770   27.217    1.161    1.194 
 3371   66.358    7.146    3.524   34.771   27.219    1.161    1.194 
 3373   66.532    7.145    3.524   34.771   27.219    1.161    1.194 
 3374   66.705    7.145    3.524   34.771   27.219    1.161    1.194 
 3375   66.879    7.144    3.524   34.772   27.219    1.184    1.194 
 3377   67.052    7.143    3.524   34.772   27.219    1.184    1.194 
 3380   67.226    7.143    3.524   34.772   27.219    1.184    1.194 
 3382   67.400    7.142    3.523   34.772   27.219    1.161    1.194 
 3385   67.573    7.140    3.523   34.772   27.220    1.161    1.190 
 3391   67.747    7.134    3.523   34.772   27.220    1.184    1.190 
 3395   67.921    7.081    3.519   34.772   27.228    1.184    1.190 
 3397   68.094    7.055    3.517   34.771   27.229    1.184    1.190 
 3400   68.268    7.038    3.513   34.766   27.231    1.184    1.190 
 3403   68.441    6.971    3.507   34.765   27.238    1.184    1.190 
 3405   68.615    6.922    3.505   34.764   27.244    1.184    1.190 
 3408   68.789    6.890    3.500   34.762   27.247    1.184    1.190 
 3409   68.962    6.877    3.500   34.760   27.247    1.184    1.190 
 3411   69.136    6.838    3.495   34.759   27.251    1.184    1.190 
 3413   69.309    6.825    3.493   34.758   27.252    1.184    1.186 
 3414   69.483    6.820    3.493   34.756   27.252    1.184    1.186 
 3415   69.657    6.816    3.492   34.756   27.252    1.184    1.186 
 3416   69.830    6.814    3.492   34.755   27.252    1.184    1.186 
 3417   70.004    6.813    3.492   34.755   27.252    1.161    1.186 
 3419   70.351    6.800    3.491   34.753   27.252    1.161    1.186 
 3420   70.525    6.795    3.490   34.753   27.252    1.138    1.186 
 3422   70.872    6.788    3.490   34.753   27.253    1.138    1.186 
 3423   71.045    6.782    3.489   34.753   27.254    1.114    1.186 
 3424   71.219    6.778    3.489   34.753   27.255    1.138    1.186 
 3425   71.566    6.775    3.488   34.752   27.255    1.138    1.186 
 3426   71.740    6.770    3.488   34.752   27.255    1.114    1.186 
 3427   71.913    6.764    3.488   34.752   27.256    1.114    1.186 
 3428   72.087    6.759    3.487   34.752   27.257    1.114    1.186 
 3429   72.261    6.753    3.486   34.752   27.257    1.114    1.186 
 3430   72.434    6.747    3.486   34.751   27.258    1.114    1.186 
 3431   72.608    6.742    3.485   34.751   27.258    1.114    1.190 
 3432   72.781    6.738    3.485   34.751   27.259    1.114    1.190 
 3433   72.955    6.734    3.485   34.751   27.259    1.114    1.190 
 3434   73.302    6.731    3.484   34.750   27.259    1.114    1.190 
 3435   73.476    6.727    3.484   34.750   27.260    1.114    1.190 
 3437   73.649    6.712    3.483   34.750   27.262    1.114    1.190 
 3438   73.823    6.706    3.482   34.750   27.262    1.114    1.190 
 3440   73.997    6.706    3.482   34.749   27.262    1.114    1.190 
 3446   74.170    6.701    3.482   34.749   27.262    1.184    1.186 
 3460   74.344    6.683    3.480   34.749   27.263    1.230    1.181 
 3461   74.517    6.683    3.480   34.747   27.264    1.184    1.181 
 3464   74.691    6.682    3.480   34.748   27.264    1.161    1.181 
 3466   74.865    6.680    3.479   34.748   27.265    1.207    1.181 
 3468   75.038    6.679    3.479   34.748   27.265    1.230    1.181 
 3469   75.212    6.679    3.479   34.749   27.265    1.207    1.181 
 3471   75.559    6.678    3.479   34.749   27.265    1.207    1.181 
 3473   75.733    6.677    3.479   34.749   27.266    1.207    1.177 
 3474   75.906    6.677    3.479   34.749   27.266    1.207    1.177 
 3476   76.253    6.677    3.479   34.749   27.266    1.207    1.177 
 3478   76.427    6.675    3.479   34.749   27.266    1.184    1.177 
 3479   76.601    6.674    3.479   34.749   27.266    1.161    1.177 
 3481   76.774    6.662    3.478   34.748   27.266    1.138    1.177 
 3482   76.948    6.661    3.478   34.747   27.266    1.114    1.177 
 3484   77.121    6.660    3.478   34.747   27.267    1.091    1.177 
 3485   77.295    6.659    3.478   34.748   27.267    1.091    1.177 
 3487   77.469    6.659    3.478   34.749   27.268    1.068    1.181 
 3488   77.642    6.658    3.478   34.750   27.269    1.068    1.181 
 3490   77.816    6.658    3.478   34.750   27.269    1.068    1.181 
 3492   77.989    6.657    3.478   34.750   27.269    1.045    1.181 
 3493   78.163    6.656    3.478   34.750   27.269    1.045    1.181 
 3494   78.337    6.656    3.478   34.750   27.269    1.021    1.181 
 3496   78.510    6.655    3.477   34.750   27.269    0.998    1.181 
 3498   78.684    6.652    3.477   34.750   27.270    0.998    1.181 
 3500   78.857    6.651    3.477   34.750   27.270    0.998    1.181 
 3502   79.031    6.648    3.477   34.750   27.270    0.998    1.177 
 3503   79.205    6.648    3.477   34.750   27.270    0.998    1.177 
 3505   79.378    6.647    3.477   34.750   27.270    0.998    1.177 
 3506   79.552    6.646    3.477   34.750   27.270    0.998    1.177 
 3508   79.725    6.641    3.476   34.749   27.270    0.998    1.177 
 3510   80.073    6.637    3.476   34.748   27.270    0.998    1.177 
 3512   80.246    6.633    3.475   34.747   27.270    0.975    1.177 
 3513   80.420    6.631    3.475   34.747   27.270    0.952    1.177 
 3515   80.593    6.627    3.475   34.748   27.270    0.952    1.177 
 3516   80.767    6.625    3.475   34.748   27.270    0.952    1.177 
 3517   80.941    6.625    3.475   34.748   27.270    0.952    1.177 
 3518   81.114    6.624    3.475   34.746   27.270    0.928    1.177 
 3520   81.288    6.623    3.474   34.746   27.270    0.905    1.177 
 3521   81.461    6.622    3.474   34.744   27.270    0.905    1.173 
 3523   81.635    6.621    3.474   34.744   27.270    0.928    1.173 
 3524   81.809    6.620    3.474   34.744   27.270    0.905    1.173 
 3526   81.982    6.618    3.474   34.744   27.270    0.905    1.173 
 3528   82.156    6.615    3.474   34.744   27.271    0.928    1.173 
 3530   82.329    6.612    3.474   34.744   27.271    0.905    1.173 
 3532   82.503    6.611    3.473   34.744   27.271    0.905    1.173 
 3537   82.677    6.609    3.473   34.744   27.271    0.905    1.173 
 3538   82.850    6.608    3.473   34.744   27.271    0.905    1.173 
 3544   83.024    6.598    3.472   34.744   27.272    0.905    1.168 
 3545   83.197    6.598    3.472   34.744   27.272    0.905    1.168 
 3547   83.371    6.597    3.472   34.744   27.272    0.882    1.173 
 3549   83.545    6.593    3.472   34.744   27.273    0.882    1.168 
 3550   83.718    6.593    3.472   34.744   27.273    0.882    1.168 
 3552   83.892    6.590    3.471   34.744   27.273    0.882    1.168 
 3553   84.065    6.589    3.471   34.744   27.273    0.882    1.168 
 3555   84.239    6.586    3.471   34.744   27.274    0.882    1.168 
 3558   84.413    6.574    3.470   34.744   27.275    0.882    1.168 
 3559   84.586    6.572    3.470   34.744   27.275    0.882    1.168 
 3560   84.760    6.567    3.469   34.743   27.276    0.882    1.168 
 3561   84.933    6.562    3.469   34.743   27.276    0.882    1.168 
 3563   85.107    6.560    3.469   34.743   27.277    0.882    1.168 
 3565   85.280    6.556    3.468   34.743   27.277    0.882    1.168 
 3566   85.454    6.553    3.468   34.743   27.277    0.882    1.168 
 3569   85.628    6.550    3.468   34.742   27.278    0.882    1.168 
 3571   85.801    6.549    3.468   34.743   27.278    0.859    1.168 
 3573   85.975    6.549    3.467   34.743   27.278    0.859    1.168 
 3575   86.148    6.548    3.467   34.742   27.278    0.859    1.168 
 3577   86.322    6.548    3.467   34.742   27.278    0.859    1.164 
 3578   86.496    6.547    3.467   34.742   27.278    0.859    1.164 
 3580   86.669    6.544    3.467   34.743   27.278    0.859    1.164 
 3581   86.843    6.542    3.467   34.743   27.279    0.836    1.164 
 3583   87.016    6.540    3.467   34.742   27.279    0.836    1.164 
 3584   87.190    6.538    3.467   34.742   27.279    0.836    1.164 
 3585   87.364    6.536    3.466   34.741   27.279    0.836    1.164 
 3587   87.537    6.525    3.466   34.741   27.279    0.836    1.164 
 3588   87.711    6.522    3.465   34.741   27.280    0.836    1.164 
 3589   87.884    6.521    3.465   34.741   27.280    0.836    1.164 
 3590   88.058    6.519    3.465   34.741   27.281    0.836    1.164 
 3591   88.232    6.517    3.465   34.742   27.282    0.836    1.164 
 3592   88.405    6.515    3.465   34.742   27.282    0.812    1.164 
 3594   88.579    6.506    3.464   34.742   27.283    0.812    1.164 
 3595   88.752    6.503    3.463   34.742   27.283    0.812    1.164 
 3596   88.926    6.501    3.463   34.741   27.283    0.812    1.164 
 3597   89.100    6.500    3.463   34.741   27.283    0.812    1.164 
 3598   89.273    6.499    3.463   34.741   27.283    0.789    1.164 
 3599   89.447    6.498    3.463   34.741   27.284    0.789    1.164 
 3601   89.620    6.497    3.463   34.742   27.284    0.812    1.164 
 3602   89.794    6.496    3.463   34.742   27.284    0.812    1.164 
 3604   89.967    6.496    3.463   34.742   27.285    0.789    1.164 
 3617   90.141    6.498    3.463   34.742   27.285    0.789    1.164 
 3630   90.315    6.489    3.462   34.741   27.285    0.719    1.160 
 3631   90.488    6.486    3.462   34.741   27.285    0.696    1.160 
 3632   90.662    6.482    3.461   34.741   27.285    0.696    1.160 
 3633   90.835    6.479    3.461   34.741   27.286    0.696    1.160 
 3634   91.009    6.473    3.461   34.741   27.286    0.673    1.160 
 3635   91.183    6.473    3.461   34.741   27.286    0.673    1.160 
 3636   91.530    6.473    3.461   34.742   27.286    0.673    1.160 
 3638   91.877    6.472    3.461   34.742   27.286    0.650    1.160 
 3639   92.051    6.472    3.461   34.742   27.286    0.650    1.160 
 3640   92.398    6.472    3.460   34.742   27.286    0.627    1.160 
 3641   92.571    6.469    3.460   34.742   27.286    0.627    1.160 
 3642   92.918    6.469    3.460   34.742   27.286    0.627    1.160 
 3643   93.092    6.469    3.460   34.739   27.286    0.627    1.160 
 3644   93.439    6.469    3.460   34.739   27.286    0.603    1.160 
 3645   93.786    6.469    3.460   34.739   27.286    0.603    1.160 
 3646   94.134    6.472    3.461   34.738   27.286    0.603    1.160 
 3647   94.307    6.472    3.461   34.738   27.286    0.557    1.160 
 3648   94.654    6.473    3.461   34.738   27.286    0.557    1.160 
 3649   94.828    6.473    3.461   34.738   27.286    0.557    1.160 
 3650   95.175    6.473    3.461   34.738   27.286    0.557    1.160 
 3652   95.349    6.475    3.461   34.738   27.286    0.557    1.160 
 3653   95.522    6.476    3.461   34.739   27.286    0.557    1.160 
 3654   95.696    6.476    3.461   34.739   27.286    0.557    1.155 
 3655   95.869    6.476    3.461   34.740   27.286    0.580    1.155 
 3656   96.043    6.476    3.461   34.740   27.286    0.580    1.155 
 3687   96.217    6.476    3.461   34.741   27.286    0.557    1.155 
 3688   96.390    6.476    3.461   34.741   27.286    0.534    1.155 
 3689   96.737    6.475    3.461   34.741   27.286    0.534    1.155 
 3690   96.911    6.474    3.461   34.741   27.286    0.534    1.155 
 3691   97.085    6.473    3.461   34.741   27.286    0.534    1.155 
 3692   97.432    6.471    3.461   34.741   27.286    0.510    1.155 
 3693   97.605    6.469    3.461   34.741   27.287    0.510    1.155 
 3694   97.952    6.467    3.461   34.742   27.288    0.510    1.155 
 3695   98.126    6.459    3.460   34.742   27.289    0.487    1.155 
 3696   98.473    6.453    3.459   34.742   27.290    0.510    1.155 
 3697   98.647    6.449    3.459   34.742   27.290    0.534    1.155 
 3698   98.820    6.444    3.459   34.742   27.290    0.534    1.155 
 3699   99.168    6.439    3.458   34.742   27.290    0.510    1.155 
 3700   99.341    6.437    3.458   34.742   27.290    0.510    1.155 
 3701   99.515    6.437    3.458   34.742   27.290    0.487    1.155 
 3702   99.688    6.436    3.458   34.742   27.290    0.464    1.155 
 3703  100.035    6.434    3.458   34.741   27.290    0.464    1.155 
 3704  100.209    6.432    3.458   34.738   27.290    0.464    1.155 
 3706  100.383    6.431    3.457   34.738   27.290    0.464    1.155 
 3707  100.556    6.431    3.457   34.738   27.290    0.464    1.155 
 3709  100.730    6.431    3.457   34.738   27.290    0.464    1.155 
 3710  100.903    6.431    3.457   34.738   27.290    0.464    1.155 
 3732  101.077    6.433    3.457   34.738   27.290    0.487    1.151 
 3735  101.250    6.431    3.457   34.738   27.290    0.464    1.151 
 3737  101.424    6.431    3.457   34.738   27.290    0.464    1.151 
 3740  101.771    6.430    3.457   34.738   27.290    0.464    1.151 
 3742  101.945    6.429    3.457   34.738   27.290    0.464    1.151 
 3743  102.118    6.429    3.457   34.738   27.290    0.464    1.151 
 3744  102.292    6.429    3.457   34.737   27.290    0.464    1.151 
 3746  102.466    6.425    3.457   34.737   27.290    0.464    1.151 
 3747  102.639    6.425    3.457   34.737   27.290    0.464    1.151 
 3748  102.813    6.425    3.457   34.737   27.290    0.464    1.151 
 3749  102.986    6.423    3.457   34.737   27.290    0.464    1.151 
 3750  103.160    6.422    3.457   34.737   27.290    0.464    1.151 
 3751  103.333    6.422    3.457   34.737   27.290    0.464    1.151 
 3752  103.507    6.422    3.457   34.737   27.290    0.464    1.151 
 3753  103.681    6.422    3.456   34.736   27.290    0.464    1.151 
 3754  103.854    6.421    3.456   34.736   27.290    0.464    1.151 
 3755  104.028    6.421    3.456   34.736   27.290    0.487    1.151 
 3756  104.201    6.420    3.456   34.736   27.290    0.487    1.151 
 3757  104.375    6.420    3.456   34.736   27.290    0.487    1.151 
 3758  104.549    6.420    3.456   34.736   27.290    0.534    1.151 
 3759  104.722    6.420    3.456   34.736   27.290    0.487    1.151 
 3760  104.896    6.419    3.456   34.736   27.290    0.487    1.151 
 3761  105.069    6.419    3.456   34.736   27.290    0.487    1.151 
 3762  105.243    6.419    3.456   34.736   27.290    0.487    1.151 
 3763  105.416    6.419    3.456   34.736   27.290    0.487    1.151 
 3764  105.590    6.418    3.456   34.736   27.290    0.487    1.151 
 3765  105.764    6.418    3.456   34.736   27.290    0.510    1.151 
 3766  106.111    6.415    3.456   34.736   27.290    0.534    1.151 
 3767  106.284    6.411    3.456   34.736   27.291    0.510    1.151 
 3769  106.458    6.400    3.455   34.736   27.292    0.487    1.151 
 3770  106.631    6.393    3.454   34.736   27.293    0.487    1.151 
 3771  106.805    6.387    3.453   34.736   27.294    0.487    1.151 
 3772  106.979    6.381    3.453   34.736   27.294    0.487    1.151 
 3773  107.152    6.378    3.453   34.736   27.295    0.487    1.151 
 3774  107.326    6.376    3.452   34.736   27.295    0.487    1.151 
 3775  107.499    6.374    3.452   34.736   27.295    0.487    1.151 
 3778  107.673    6.370    3.452   34.734   27.295    0.487    1.151 
 3779  107.846    6.368    3.452   34.734   27.295    0.487    1.151 
 3781  108.020    6.367    3.451   34.733   27.295    0.487    1.151 
 3783  108.194    6.366    3.451   34.733   27.295    0.464    1.151 
 3787  108.367    6.365    3.451   34.733   27.295    0.464    1.151 
 3797  108.541    6.357    3.450   34.733   27.296    0.464    1.151 
 3802  108.714    6.347    3.449   34.733   27.297    0.464    1.151 
 3806  108.888    6.347    3.449   34.733   27.297    0.464    1.151 
 3807  109.061    6.347    3.449   34.733   27.297    0.464    1.151 
 3809  109.235    6.347    3.449   34.733   27.297    0.464    1.151 
 3811  109.409    6.347    3.449   34.733   27.297    0.464    1.151 
 3812  109.582    6.347    3.449   34.733   27.297    0.464    1.147 
 3814  109.756    6.347    3.449   34.733   27.297    0.464    1.151 
 3815  109.929    6.347    3.450   34.739   27.302    0.464    1.147 
 3816  110.103    6.347    3.450   34.739   27.302    0.464    1.151 
 3817  110.277    6.347    3.450   34.739   27.302    0.464    1.147 
 3818  110.450    6.347    3.450   34.739   27.302    0.464    1.147 
 3820  110.624    6.347    3.450   34.739   27.302    0.441    1.147 
 3821  110.797    6.347    3.450   34.739   27.302    0.441    1.147 
 3822  110.971    6.347    3.450   34.739   27.302    0.441    1.147 
 3823  111.144    6.347    3.450   34.739   27.302    0.441    1.147 
 3825  111.318    6.347    3.450   34.739   27.302    0.441    1.147 
 3826  111.492    6.346    3.450   34.739   27.302    0.441    1.147 
 3827  111.665    6.345    3.450   34.739   27.302    0.441    1.147 
 3829  111.839    6.344    3.449   34.739   27.302    0.441    1.147 
 3830  112.012    6.343    3.449   34.739   27.302    0.441    1.147 
 3831  112.186    6.343    3.449   34.739   27.302    0.441    1.147 
 3834  112.359    6.340    3.449   34.738   27.302    0.441    1.147 
 3835  112.533    6.339    3.449   34.737   27.301    0.441    1.147 
 3837  112.707    6.336    3.449   34.736   27.301    0.441    1.147 
 3840  112.880    6.328    3.448   34.735   27.301    0.441    1.147 
 3841  113.054    6.326    3.448   34.735   27.301    0.441    1.147 
 3842  113.227    6.324    3.448   34.734   27.301    0.441    1.147 
 3844  113.401    6.319    3.447   34.733   27.301    0.441    1.147 
 3845  113.574    6.316    3.447   34.732   27.301    0.441    1.147 
 3846  113.748    6.313    3.447   34.732   27.301    0.441    1.147 
 3847  113.922    6.312    3.447   34.732   27.301    0.441    1.147 
 3849  114.095    6.310    3.446   34.732   27.301    0.441    1.147 
 3850  114.269    6.309    3.446   34.732   27.301    0.441    1.147 
 3851  114.442    6.308    3.446   34.732   27.301    0.464    1.147 
 3852  114.616    6.308    3.446   34.732   27.301    0.441    1.147 
 3854  114.789    6.308    3.446   34.732   27.301    0.441    1.147 
 3855  114.963    6.308    3.446   34.732   27.301    0.441    1.147 
 3857  115.137    6.308    3.446   34.732   27.301    0.441    1.147 
 3858  115.310    6.308    3.446   34.732   27.301    0.441    1.147 
 3859  115.484    6.308    3.446   34.732   27.301    0.441    1.147 
 3861  115.657    6.308    3.446   34.732   27.301    0.417    1.147 
 3863  115.831    6.310    3.446   34.732   27.301    0.441    1.147 
 3864  116.004    6.310    3.446   34.732   27.301    0.441    1.147 
 3867  116.178    6.310    3.447   34.732   27.301    0.417    1.147 
 3870  116.352    6.310    3.447   34.732   27.301    0.441    1.147 
 3872  116.525    6.310    3.447   34.733   27.302    0.417    1.147 
 3876  116.699    6.310    3.446   34.735   27.303    0.394    1.147 
 3880  116.872    6.309    3.446   34.735   27.303    0.441    1.143 
 3882  117.046    6.306    3.446   34.735   27.304    0.441    1.143 
 3885  117.219    6.304    3.446   34.736   27.305    0.441    1.147 
 3886  117.393    6.304    3.446   34.737   27.306    0.441    1.147 
 3888  117.567    6.304    3.446   34.737   27.306    0.464    1.147 
 3891  117.740    6.301    3.446   34.737   27.306    0.417    1.147 
 3892  117.914    6.300    3.446   34.737   27.306    0.417    1.147 
 3894  118.087    6.299    3.446   34.737   27.306    0.441    1.147 
 3895  118.261    6.296    3.446   34.736   27.307    0.441    1.147 
 3897  118.434    6.291    3.445   34.736   27.307    0.441    1.147 
 3898  118.608    6.290    3.445   34.736   27.307    0.417    1.147 
 3900  118.781    6.290    3.445   34.737   27.308    0.394    1.147 
 3901  118.955    6.289    3.445   34.737   27.308    0.394    1.143 
 3902  119.129    6.288    3.445   34.737   27.308    0.394    1.143 
 3904  119.302    6.285    3.444   34.737   27.309    0.394    1.143 
 3905  119.476    6.283    3.444   34.737   27.309    0.394    1.143 
 3906  119.649    6.280    3.444   34.737   27.309    0.394    1.143 
 3907  119.823    6.276    3.444   34.737   27.310    0.394    1.143 
 3909  119.996    6.269    3.443   34.736   27.310    0.371    1.143 
 3910  120.170    6.268    3.443   34.736   27.310    0.371    1.143 
 3911  120.344    6.267    3.443   34.737   27.310    0.394    1.143 
 3913  120.517    6.265    3.443   34.736   27.310    0.371    1.143 
 3914  120.691    6.264    3.443   34.736   27.310    0.371    1.143 
 3915  120.864    6.264    3.443   34.736   27.310    0.371    1.143 
 3917  121.038    6.262    3.442   34.736   27.310    0.371    1.143 
 3919  121.211    6.262    3.442   34.736   27.310    0.371    1.143 
 3920  121.385    6.262    3.442   34.736   27.310    0.394    1.143 
 3922  121.559    6.261    3.442   34.736   27.310    0.394    1.143 
 3925  121.732    6.259    3.442   34.736   27.311    0.417    1.143 
 3928  121.906    6.256    3.442   34.736   27.311    0.417    1.143 
 3931  122.079    6.251    3.442   34.735   27.312    0.417    1.143 
 3934  122.253    6.246    3.441   34.735   27.312    0.417    1.143 
 3935  122.426    6.246    3.441   34.735   27.312    0.417    1.143 
 3938  122.600    6.245    3.441   34.735   27.312    0.394    1.143 
 3940  122.773    6.241    3.441   34.735   27.312    0.394    1.143 
 3942  123.121    6.239    3.440   34.735   27.312    0.394    1.143 
 3944  123.294    6.239    3.440   34.735   27.313    0.394    1.143 
 3946  123.468    6.235    3.440   34.735   27.313    0.394    1.143 
 3947  123.641    6.234    3.440   34.735   27.314    0.394    1.143 
 3949  123.815    6.232    3.440   34.735   27.314    0.394    1.143 
 3950  123.988    6.227    3.439   34.735   27.315    0.394    1.143 
 3951  124.162    6.223    3.439   34.735   27.315    0.394    1.143 
 3953  124.336    6.215    3.438   34.735   27.315    0.394    1.143 
 3954  124.509    6.213    3.438   34.734   27.315    0.394    1.143 
 3956  124.683    6.207    3.438   34.733   27.316    0.394    1.143 
 3957  124.856    6.205    3.437   34.733   27.316    0.394    1.143 
 3959  125.030    6.199    3.437   34.733   27.316    0.417    1.143 
 3961  125.203    6.192    3.436   34.733   27.317    0.394    1.143 
 3964  125.377    6.187    3.436   34.733   27.318    0.417    1.143 
 3966  125.551    6.185    3.435   34.733   27.318    0.394    1.143 
 3969  125.724    6.183    3.435   34.732   27.318    0.394    1.143 
 3971  125.898    6.182    3.435   34.732   27.318    0.417    1.143 
 3973  126.071    6.179    3.435   34.732   27.318    0.394    1.143 
 3975  126.245    6.174    3.434   34.733   27.319    0.394    1.143 
 3976  126.418    6.171    3.434   34.732   27.319    0.394    1.143 
 3978  126.592    6.166    3.434   34.732   27.319    0.394    1.143 
 3979  126.765    6.163    3.433   34.732   27.320    0.371    1.143 
 3981  126.939    6.158    3.433   34.732   27.321    0.371    1.143 
 3982  127.113    6.156    3.433   34.732   27.321    0.394    1.138 
 3983  127.286    6.154    3.432   34.731   27.321    0.394    1.138 
 3984  127.460    6.151    3.432   34.731   27.321    0.394    1.138 
 3985  127.633    6.148    3.432   34.732   27.322    0.394    1.138 
 3986  127.807    6.147    3.432   34.732   27.322    0.394    1.138 
 3988  128.154    6.144    3.432   34.732   27.322    0.371    1.138 
 3990  128.501    6.142    3.431   34.732   27.323    0.371    1.138 
 3992  128.675    6.137    3.431   34.732   27.324    0.371    1.138 
 3993  128.848    6.136    3.431   34.732   27.324    0.348    1.138 
 3994  129.022    6.134    3.431   34.733   27.324    0.348    1.138 
 3995  129.195    6.133    3.430   34.733   27.325    0.348    1.138 
 3996  129.369    6.131    3.430   34.733   27.325    0.348    1.138 
 3998  129.542    6.127    3.430   34.733   27.325    0.371    1.138 
 3999  129.716    6.125    3.430   34.734   27.327    0.371    1.138 
 4000  129.890    6.124    3.430   34.734   27.327    0.394    1.138 
 4001  130.063    6.122    3.430   34.734   27.327    0.394    1.138 
 4003  130.237    6.122    3.430   34.734   27.327    0.394    1.138 
 4005  130.410    6.122    3.430   34.734   27.327    0.417    1.138 
 4006  130.584    6.122    3.430   34.734   27.327    0.394    1.138 
 4009  130.757    6.122    3.430   34.734   27.327    0.417    1.138 
 4010  130.931    6.122    3.430   34.734   27.327    0.417    1.138 
 4013  131.104    6.122    3.430   34.734   27.327    0.371    1.138 
 4016  131.278    6.122    3.430   34.734   27.327    0.371    1.138 
 4020  131.452    6.122    3.430   34.734   27.327    0.417    1.138 
 4022  131.625    6.122    3.430   34.734   27.327    0.417    1.138 
 4025  131.799    6.122    3.430   34.734   27.327    0.371    1.138 
 4027  131.972    6.122    3.430   34.734   27.327    0.371    1.138 
 4029  132.146    6.122    3.430   34.734   27.327    0.371    1.138 
 4032  132.319    6.122    3.430   34.734   27.327    0.417    1.138 
 4034  132.493    6.121    3.430   34.733   27.327    0.417    1.138 
 4036  132.666    6.120    3.429   34.733   27.326    0.371    1.138 
 4037  132.840    6.119    3.429   34.733   27.326    0.371    1.138 
 4039  133.014    6.118    3.429   34.732   27.326    0.371    1.138 
 4040  133.187    6.116    3.429   34.730   27.325    0.371    1.138 
 4041  133.361    6.114    3.429   34.729   27.325    0.371    1.138 
 4043  133.708    6.111    3.429   34.728   27.325    0.371    1.138 
 4045  133.881    6.109    3.428   34.727   27.325    0.371    1.138 
 4046  134.055    6.107    3.428   34.727   27.325    0.371    1.138 
 4047  134.228    6.105    3.428   34.727   27.325    0.371    1.138 
 4049  134.402    6.103    3.428   34.727   27.325    0.371    1.138 
 4050  134.576    6.100    3.428   34.727   27.325    0.371    1.138 
 4051  134.749    6.098    3.428   34.727   27.325    0.394    1.138 
 4052  134.923    6.096    3.427   34.727   27.325    0.371    1.138 
 4054  135.096    6.095    3.427   34.727   27.325    0.394    1.138 
 4055  135.270    6.095    3.427   34.727   27.325    0.394    1.138 
 4056  135.443    6.094    3.427   34.726   27.325    0.394    1.138 
 4057  135.617    6.094    3.427   34.726   27.325    0.394    1.138 
 4059  135.790    6.074    3.426   34.727   27.327    0.394    1.138 
 4060  135.964    6.061    3.425   34.727   27.329    0.394    1.138 
 4063  136.138    6.044    3.423   34.727   27.331    0.394    1.138 
 4065  136.311    6.043    3.422   34.727   27.331    0.394    1.138 
 4068  136.485    6.041    3.422   34.727   27.332    0.394    1.138 
 4073  136.658    6.041    3.422   34.727   27.332    0.394    1.138 
 4077  136.832    6.043    3.422   34.731   27.332    0.371    1.138 
 4081  137.005    6.051    3.423   34.731   27.332    0.394    1.134 
 4084  137.179    6.065    3.424   34.731   27.332    0.394    1.134 
 4086  137.352    6.065    3.425   34.731   27.332    0.394    1.134 
 4087  137.526    6.065    3.425   34.731   27.332    0.394    1.134 
 4089  137.700    6.065    3.425   34.731   27.332    0.394    1.134 
 4091  138.047    6.065    3.425   34.731   27.332    0.394    1.134 
 4093  138.394    6.060    3.425   34.731   27.332    0.394    1.134 
 4095  138.741    6.066    3.425   34.731   27.332    0.394    1.134 
 4097  138.914    6.066    3.425   34.731   27.333    0.394    1.134 
 4098  139.262    6.066    3.425   34.731   27.333    0.394    1.134 
 4099  139.435    6.066    3.425   34.731   27.333    0.394    1.134 
 4101  139.782    6.066    3.425   34.733   27.333    0.371    1.134 
 4103  139.956    6.066    3.425   34.733   27.333    0.394    1.134 
 4104  140.129    6.066    3.425   34.733   27.333    0.394    1.134 
 4105  140.303    6.067    3.425   34.733   27.333    0.371    1.134 
 4106  140.476    6.076    3.426   34.736   27.333    0.371    1.134 
 4107  140.650    6.079    3.427   34.736   27.333    0.371    1.134 
 4109  140.823    6.081    3.427   34.735   27.334    0.394    1.134 
 4111  140.997    6.081    3.427   34.736   27.334    0.394    1.134 
 4113  141.171    6.081    3.427   34.736   27.334    0.417    1.134 
 4116  141.344    6.081    3.427   34.736   27.334    0.417    1.134 
 4122  141.518    6.082    3.427   34.736   27.334    0.417    1.134 
 4129  141.691    6.082    3.427   34.736   27.334    0.394    1.134 
 4131  141.865    6.082    3.427   34.736   27.334    0.371    1.134 
 4135  142.038    6.082    3.427   34.736   27.334    0.371    1.134 
 4136  142.385    6.082    3.427   34.737   27.335    0.371    1.134 
 4138  142.559    6.082    3.427   34.737   27.335    0.371    1.134 
 4139  142.733    6.082    3.427   34.737   27.335    0.371    1.134 
 4141  143.080    6.081    3.427   34.737   27.335    0.394    1.138 
 4142  143.253    6.080    3.427   34.737   27.335    0.394    1.134 
 4143  143.427    6.078    3.427   34.737   27.335    0.394    1.134 
 4145  143.774    6.075    3.427   34.736   27.335    0.394    1.134 
 4146  143.947    6.073    3.427   34.736   27.335    0.394    1.134 
 4147  144.121    6.071    3.426   34.736   27.335    0.394    1.134 
 4148  144.294    6.068    3.426   34.737   27.336    0.394    1.134 
 4149  144.468    6.064    3.426   34.737   27.337    0.394    1.134 
 4150  144.642    6.058    3.425   34.738   27.338    0.394    1.134 
 4151  144.989    6.052    3.425   34.739   27.340    0.394    1.134 
 4153  145.162    6.039    3.424   34.739   27.341    0.394    1.134 
 4154  145.336    6.033    3.423   34.739   27.341    0.394    1.134 
 4156  145.509    6.030    3.423   34.739   27.341    0.394    1.134 
 4158  145.683    6.028    3.422   34.738   27.341    0.394    1.134 
 4159  145.856    6.028    3.422   34.737   27.341    0.371    1.134 
 4163  146.030    6.028    3.422   34.736   27.341    0.371    1.130 
 4175  146.203    6.024    3.422   34.736   27.342    0.371    1.130 
 4180  146.377    6.020    3.422   34.735   27.342    0.371    1.130 
 4184  146.551    6.018    3.422   34.735   27.342    0.394    1.130 
 4185  146.724    6.017    3.422   34.735   27.342    0.394    1.130 
 4188  147.071    6.015    3.421   34.735   27.342    0.394    1.130 
 4189  147.245    6.014    3.421   34.735   27.342    0.394    1.130 
 4191  147.418    6.014    3.421   34.735   27.342    0.417    1.130 
 4192  147.592    6.014    3.421   34.735   27.342    0.417    1.130 
 4193  147.765    6.014    3.421   34.735   27.342    0.394    1.130 
 4194  147.939    6.014    3.421   34.735   27.342    0.417    1.130 
 4196  148.286    6.014    3.421   34.737   27.343    0.417    1.130 
 4197  148.460    6.014    3.421   34.741   27.346    0.417    1.130 
 4198  148.633    6.014    3.421   34.743   27.348    0.417    1.130 
 4199  148.807    6.014    3.421   34.743   27.348    0.417    1.130 
 4201  149.154    6.014    3.422   34.745   27.349    0.417    1.134 
 4203  149.327    6.014    3.422   34.745   27.349    0.417    1.134 
 4204  149.501    6.014    3.422   34.745   27.349    0.417    1.134 
 4205  149.674    6.014    3.422   34.745   27.349    0.417    1.134 
 4206  149.848    6.014    3.422   34.745   27.349    0.417    1.138 
 4207  150.021    6.014    3.422   34.745   27.349    0.417    1.138 
 4209  150.195    6.014    3.422   34.745   27.349    0.417    1.138 
 4211  150.369    6.014    3.422   34.745   27.349    0.394    1.138 
 4213  150.542    6.014    3.422   34.745   27.349    0.417    1.138 
 4215  150.716    6.013    3.422   34.745   27.349    0.394    1.138 
 4218  150.889    6.013    3.422   34.745   27.349    0.371    1.138 
 4222  151.063    6.013    3.421   34.740   27.346    0.371    1.138 
 4224  151.236    6.012    3.421   34.740   27.346    0.348    1.138 
 4227  151.410    6.007    3.421   34.740   27.346    0.371    1.134 
 4229  151.583    6.007    3.421   34.740   27.346    0.371    1.134 
 4231  151.757    6.007    3.421   34.740   27.346    0.371    1.134 
 4233  151.930    6.007    3.421   34.740   27.346    0.371    1.134 
 4234  152.104    6.007    3.421   34.740   27.346    0.371    1.134 
 4236  152.278    6.007    3.421   34.740   27.346    0.371    1.134 
 4237  152.451    6.007    3.421   34.740   27.346    0.371    1.134 
 4238  152.625    6.007    3.421   34.740   27.346    0.371    1.134 
 4239  152.798    6.007    3.421   34.740   27.346    0.371    1.134 
 4241  153.145    6.007    3.421   34.740   27.346    0.394    1.134 
 4243  153.319    6.007    3.421   34.740   27.346    0.394    1.134 
 4244  153.492    6.007    3.421   34.740   27.346    0.394    1.134 
 4245  153.666    6.007    3.421   34.740   27.346    0.394    1.134 
 4247  153.839    6.006    3.421   34.740   27.347    0.394    1.130 
 4248  154.013    6.006    3.421   34.740   27.347    0.394    1.130 
 4249  154.186    6.005    3.421   34.740   27.347    0.394    1.130 
 4251  154.360    6.003    3.421   34.741   27.348    0.394    1.130 
 4252  154.534    6.003    3.421   34.743   27.349    0.371    1.130 
 4255  154.707    6.001    3.421   34.743   27.349    0.371    1.130 
 4257  154.881    6.000    3.421   34.743   27.349    0.371    1.130 
 4260  155.054    5.999    3.421   34.743   27.350    0.371    1.130 
 4264  155.228    5.999    3.421   34.743   27.350    0.371    1.130 
 4268  155.401    5.998    3.421   34.743   27.350    0.371    1.130 
 4272  155.575    5.985    3.420   34.743   27.351    0.371    1.130 
 4275  155.748    5.983    3.419   34.743   27.352    0.371    1.130 
 4277  155.922    5.980    3.419   34.743   27.352    0.371    1.130 
 4279  156.095    5.978    3.419   34.743   27.352    0.371    1.130 
 4280  156.269    5.977    3.419   34.743   27.352    0.348    1.130 
 4283  156.442    5.977    3.418   34.743   27.352    0.324    1.130 
 4284  156.616    5.975    3.418   34.741   27.352    0.348    1.130 
 4286  156.963    5.973    3.418   34.741   27.352    0.324    1.130 
 4287  157.137    5.972    3.418   34.741   27.353    0.324    1.130 
 4289  157.310    5.967    3.418   34.741   27.353    0.348    1.130 
 4290  157.484    5.964    3.417   34.740   27.353    0.348    1.130 
 4291  157.657    5.960    3.417   34.740   27.353    0.394    1.130 
 4292  157.831    5.956    3.417   34.740   27.353    0.394    1.130 
 4294  158.178    5.949    3.416   34.740   27.354    0.394    1.130 
 4295  158.351    5.949    3.416   34.740   27.354    0.394    1.126 
 4297  158.525    5.948    3.416   34.740   27.354    0.394    1.130 
 4298  158.698    5.947    3.416   34.740   27.354    0.394    1.130 
 4299  158.872    5.947    3.416   34.740   27.354    0.394    1.130 
 4300  159.046    5.946    3.416   34.740   27.354    0.371    1.130 
 4301  159.219    5.945    3.416   34.740   27.354    0.371    1.130 
 4303  159.393    5.944    3.415   34.740   27.354    0.371    1.126 
 4304  159.566    5.944    3.415   34.740   27.354    0.371    1.126 
 4306  159.913    5.942    3.415   34.740   27.354    0.371    1.126 
 4309  160.087    5.937    3.415   34.740   27.354    0.371    1.126 
 4310  160.260    5.936    3.415   34.740   27.354    0.348    1.126 
 4312  160.434    5.933    3.415   34.738   27.354    0.348    1.126 
 4315  160.607    5.931    3.414   34.738   27.355    0.348    1.126 
 4317  160.781    5.927    3.414   34.738   27.355    0.371    1.126 
 4319  160.954    5.927    3.414   34.736   27.355    0.371    1.126 
 4322  161.128    5.925    3.414   34.736   27.355    0.371    1.126 
 4327  161.302    5.923    3.414   34.736   27.355    0.371    1.126 
 4330  161.475    5.922    3.413   34.737   27.355    0.394    1.126 
 4332  161.649    5.921    3.413   34.737   27.355    0.394    1.126 
 4336  161.822    5.920    3.413   34.738   27.355    0.371    1.126 
 4339  161.996    5.919    3.413   34.737   27.355    0.371    1.126 
 4342  162.169    5.918    3.413   34.737   27.355    0.371    1.126 
 4344  162.343    5.917    3.413   34.736   27.356    0.371    1.126 
 4347  162.516    5.913    3.413   34.737   27.356    0.371    1.126 
 4349  162.690    5.909    3.412   34.737   27.356    0.371    1.126 
 4351  162.863    5.905    3.412   34.736   27.356    0.371    1.126 
 4352  163.037    5.904    3.412   34.736   27.356    0.348    1.126 
 4354  163.210    5.902    3.412   34.735   27.357    0.371    1.126 
 4356  163.384    5.899    3.411   34.735   27.357    0.371    1.126 
 4357  163.557    5.892    3.411   34.735   27.358    0.371    1.126 
 4358  163.731    5.884    3.410   34.735   27.359    0.371    1.126 
 4360  163.905    5.872    3.409   34.735   27.360    0.348    1.126 
 4361  164.078    5.863    3.408   34.734   27.360    0.371    1.126 
 4362  164.252    5.860    3.408   34.733   27.360    0.371    1.126 
 4363  164.425    5.857    3.408   34.733   27.360    0.348    1.126 
 4365  164.599    5.854    3.407   34.734   27.360    0.324    1.126 
 4366  164.772    5.854    3.407   34.734   27.360    0.324    1.126 
 4367  165.119    5.854    3.407   34.734   27.360    0.324    1.126 
 4369  165.466    5.854    3.407   34.734   27.360    0.324    1.126 
 4371  165.640    5.854    3.407   34.734   27.360    0.348    1.126 
 4372  165.813    5.854    3.407   34.734   27.361    0.348    1.126 
 4373  165.987    5.854    3.407   34.734   27.361    0.348    1.126 
 4374  166.160    5.853    3.407   34.733   27.361    0.324    1.122 
 4375  166.334    5.853    3.407   34.732   27.361    0.324    1.122 
 4377  166.507    5.851    3.407   34.732   27.361    0.324    1.122 
 4378  167.028    5.851    3.407   34.732   27.361    0.324    1.122 
 4380  167.202    5.850    3.407   34.732   27.361    0.324    1.122 
 4381  167.375    5.848    3.407   34.732   27.361    0.324    1.122 
 4382  167.549    5.845    3.407   34.732   27.361    0.324    1.122 
 4383  167.896    5.840    3.406   34.732   27.361    0.324    1.122 
 4385  168.243    5.811    3.404   34.732   27.365    0.324    1.122 
 4387  168.416    5.795    3.402   34.732   27.367    0.348    1.122 
 4388  168.590    5.787    3.401   34.732   27.368    0.348    1.122 
 4389  168.763    5.779    3.400   34.732   27.369    0.324    1.122 
 4390  168.937    5.774    3.400   34.731   27.369    0.348    1.122 
 4393  169.110    5.767    3.399   34.731   27.369    0.348    1.122 
 4394  169.284    5.767    3.399   34.730   27.369    0.348    1.122 
 4397  169.457    5.767    3.399   34.730   27.369    0.348    1.122 
 4424  169.631    5.757    3.398   34.728   27.369    0.417    1.122 
 4426  169.805    5.756    3.398   34.728   27.369    0.417    1.122 
 4427  169.978    5.754    3.398   34.728   27.369    0.394    1.122 
 4428  170.152    5.754    3.398   34.728   27.369    0.394    1.122 
 4430  170.325    5.753    3.398   34.728   27.369    0.417    1.122 
 4431  170.499    5.751    3.398   34.727   27.369    0.417    1.122 
 4432  170.672    5.748    3.397   34.724   27.367    0.417    1.122 
 4433  170.846    5.748    3.397   34.724   27.367    0.417    1.122 
 4434  171.193    5.748    3.397   34.724   27.367    0.417    1.122 
 4435  171.366    5.748    3.397   34.724   27.367    0.394    1.122 
 4436  171.540    5.748    3.397   34.724   27.367    0.394    1.122 
 4437  171.713    5.748    3.397   34.724   27.367    0.394    1.122 
 4438  171.887    5.748    3.397   34.724   27.367    0.394    1.122 
 4439  172.060    5.748    3.397   34.724   27.367    0.394    1.122 
 4440  172.407    5.748    3.397   34.724   27.367    0.394    1.122 
 4441  172.581    5.748    3.397   34.724   27.367    0.394    1.122 
 4442  172.755    5.748    3.397   34.724   27.367    0.394    1.122 
 4443  173.102    5.754    3.398   34.724   27.367    0.394    1.122 
 4444  173.275    5.758    3.398   34.728   27.369    0.394    1.122 
 4445  173.449    5.762    3.399   34.729   27.369    0.394    1.122 
 4446  173.622    5.764    3.399   34.729   27.369    0.394    1.122 
 4448  173.969    5.772    3.400   34.730   27.369    0.394    1.122 
 4450  174.143    5.775    3.400   34.731   27.369    0.371    1.117 
 4451  174.316    5.776    3.401   34.732   27.370    0.371    1.117 
 4452  174.490    5.777    3.401   34.733   27.370    0.371    1.117 
 4455  174.663    5.777    3.401   34.735   27.371    0.371    1.117 
 4457  174.837    5.778    3.401   34.736   27.371    0.348    1.117 
 4460  175.010    5.778    3.401   34.736   27.371    0.348    1.117 
 4463  175.184    5.778    3.401   34.736   27.371    0.324    1.117 
 4468  175.357    5.780    3.401   34.736   27.371    0.324    1.117 
 4470  175.531    5.781    3.401   34.737   27.372    0.324    1.117 
 4472  175.704    5.784    3.401   34.737   27.372    0.324    1.117 
 4474  175.878    5.788    3.402   34.737   27.372    0.324    1.117 
 4476  176.051    5.788    3.402   34.737   27.372    0.324    1.117 
 4477  176.225    5.788    3.402   34.737   27.372    0.348    1.117 
 4479  176.399    5.789    3.402   34.737   27.372    0.371    1.117 
 4481  176.572    5.789    3.402   34.737   27.372    0.394    1.117 
 4482  176.746    5.789    3.402   34.737   27.372    0.394    1.117 
 4484  176.919    5.789    3.402   34.737   27.372    0.394    1.117 
 4486  177.093    5.788    3.402   34.737   27.372    0.394    1.117 
 4487  177.266    5.788    3.402   34.737   27.372    0.371    1.117 
 4488  177.440    5.788    3.402   34.737   27.372    0.394    1.117 
 4491  177.613    5.786    3.402   34.737   27.372    0.394    1.122 
 4492  177.787    5.786    3.402   34.737   27.372    0.394    1.122 
 4496  177.960    5.784    3.402   34.738   27.374    0.394    1.117 
 4497  178.134    5.783    3.402   34.738   27.374    0.394    1.117 
 4499  178.307    5.782    3.402   34.738   27.374    0.371    1.117 
 4501  178.481    5.782    3.402   34.738   27.374    0.371    1.117 
 4503  178.654    5.778    3.401   34.738   27.374    0.371    1.117 
 4505  178.828    5.764    3.401   34.738   27.376    0.371    1.117 
 4507  179.001    5.735    3.398   34.738   27.380    0.371    1.117 
 4508  179.175    5.722    3.397   34.738   27.381    0.371    1.117 
 4509  179.348    5.705    3.395   34.738   27.383    0.371    1.117 
 4512  179.522    5.668    3.391   34.735   27.385    0.371    1.117 
 4513  179.695    5.662    3.391   34.735   27.386    0.371    1.117 
 4514  179.869    5.657    3.390   34.735   27.386    0.371    1.117 
 4515  180.042    5.656    3.390   34.735   27.386    0.348    1.117 
 4517  180.216    5.656    3.390   34.735   27.386    0.324    1.117 
 4518  180.390    5.656    3.390   34.735   27.386    0.324    1.117 
 4519  180.563    5.656    3.390   34.735   27.386    0.324    1.117 
 4520  180.737    5.656    3.390   34.735   27.386    0.324    1.117 
 4522  180.910    5.655    3.390   34.735   27.386    0.324    1.117 
 4523  181.084    5.655    3.390   34.735   27.386    0.324    1.117 
 4525  181.257    5.655    3.390   34.735   27.386    0.348    1.117 
 4526  181.431    5.655    3.390   34.735   27.386    0.348    1.117 
 4527  181.604    5.655    3.390   34.735   27.386    0.348    1.117 
 4529  181.778    5.655    3.390   34.735   27.386    0.371    1.117 
 4532  181.951    5.655    3.390   34.734   27.386    0.371    1.117 
 4533  182.125    5.653    3.390   34.734   27.386    0.371    1.117 
 4537  182.298    5.649    3.389   34.732   27.386    0.348    1.117 
 4539  182.472    5.647    3.389   34.732   27.385    0.348    1.117 
 4544  182.645    5.646    3.389   34.731   27.385    0.324    1.117 
 4549  182.819    5.646    3.389   34.731   27.385    0.348    1.117 
 4554  182.992    5.647    3.389   34.731   27.385    0.348    1.113 
 4557  183.166    5.647    3.389   34.731   27.385    0.348    1.117 
 4559  183.339    5.648    3.389   34.731   27.385    0.348    1.113 
 4560  183.513    5.648    3.389   34.731   27.385    0.348    1.117 
 4563  183.860    5.648    3.389   34.731   27.385    0.348    1.117 
 4565  184.033    5.648    3.389   34.731   27.385    0.371    1.117 
 4566  184.207    5.648    3.389   34.731   27.385    0.371    1.117 
 4567  184.380    5.647    3.389   34.732   27.385    0.371    1.117 
 4568  184.554    5.647    3.389   34.732   27.385    0.371    1.117 
 4569  184.728    5.635    3.389   34.732   27.387    0.371    1.117 
 4570  184.901    5.621    3.387   34.732   27.389    0.371    1.113 
 4571  185.248    5.612    3.386   34.734   27.391    0.371    1.113 
 4572  185.422    5.603    3.386   34.734   27.392    0.371    1.117 
 4573  185.595    5.599    3.385   34.734   27.393    0.371    1.117 
 4574  185.769    5.597    3.385   34.736   27.395    0.371    1.117 
 4575  185.942    5.596    3.385   34.736   27.395    0.371    1.117 
 4576  186.289    5.595    3.385   34.737   27.396    0.371    1.113 
 4577  186.463    5.593    3.385   34.737   27.396    0.371    1.113 
 4578  186.636    5.591    3.384   34.737   27.397    0.371    1.113 
 4579  186.810    5.587    3.384   34.738   27.397    0.371    1.113 
 4580  186.983    5.585    3.384   34.738   27.397    0.371    1.113 
 4582  187.330    5.584    3.384   34.738   27.398    0.371    1.113 
 4583  187.504    5.583    3.384   34.738   27.398    0.394    1.113 
 4585  187.677    5.583    3.384   34.738   27.398    0.394    1.113 
 4587  187.851    5.583    3.384   34.738   27.398    0.371    1.113 
 4589  188.024    5.583    3.384   34.738   27.398    0.371    1.113 
 4607  188.198    5.582    3.384   34.738   27.398    0.348    1.109 
 4611  188.371    5.581    3.384   34.738   27.399    0.348    1.109 
 4612  188.545    5.581    3.384   34.738   27.399    0.348    1.109 
 4613  188.718    5.581    3.384   34.739   27.399    0.348    1.109 
 4615  188.892    5.581    3.384   34.739   27.399    0.348    1.109 
 4617  189.239    5.580    3.384   34.739   27.399    0.348    1.109 
 4618  189.412    5.579    3.384   34.739   27.399    0.371    1.109 
 4619  189.586    5.578    3.384   34.739   27.400    0.371    1.113 
 4620  189.759    5.578    3.383   34.739   27.400    0.371    1.113 
 4621  189.933    5.575    3.383   34.739   27.400    0.371    1.113 
 4622  190.106    5.566    3.383   34.739   27.401    0.371    1.113 
 4623  190.280    5.545    3.381   34.739   27.401    0.371    1.113 
 4624  190.453    5.523    3.379   34.737   27.401    0.371    1.113 
 4625  190.627    5.509    3.378   34.733   27.401    0.371    1.113 
 4626  190.801    5.500    3.376   34.730   27.401    0.371    1.113 
 4628  190.974    5.491    3.375   34.730   27.401    0.371    1.113 
 4629  191.321    5.482    3.375   34.728   27.401    0.371    1.113 
 4632  191.495    5.473    3.373   34.728   27.401    0.371    1.113 
 4633  191.668    5.473    3.373   34.726   27.401    0.371    1.113 
 4637  191.842    5.473    3.373   34.726   27.401    0.371    1.113 
 4648  192.015    5.480    3.374   34.726   27.401    0.371    1.109 
 4655  192.189    5.482    3.374   34.726   27.402    0.348    1.109 
 4657  192.362    5.482    3.374   34.726   27.402    0.348    1.109 
 4659  192.536    5.482    3.374   34.726   27.402    0.324    1.109 
 4660  192.709    5.482    3.374   34.726   27.402    0.348    1.113 
 4661  192.883    5.482    3.374   34.726   27.402    0.348    1.113 
 4662  193.056    5.482    3.374   34.726   27.402    0.348    1.113 
 4663  193.230    5.482    3.374   34.726   27.402    0.348    1.109 
 4665  193.577    5.481    3.374   34.726   27.402    0.348    1.109 
 4667  193.924    5.477    3.374   34.726   27.402    0.348    1.113 
 4668  194.097    5.473    3.374   34.726   27.402    0.348    1.113 
 4669  194.271    5.465    3.373   34.725   27.403    0.348    1.113 
 4670  194.444    5.454    3.372   34.726   27.404    0.348    1.113 
 4671  194.618    5.432    3.370   34.726   27.407    0.348    1.113 
 4672  194.965    5.421    3.369   34.726   27.408    0.371    1.113 
 4673  195.138    5.420    3.369   34.726   27.408    0.371    1.113 
 4674  195.312    5.419    3.369   34.726   27.408    0.371    1.113 
 4675  195.832    5.419    3.369   34.726   27.408    0.371    1.113 
 4677  196.006    5.417    3.368   34.726   27.408    0.394    1.109 
 4679  196.179    5.415    3.368   34.726   27.408    0.394    1.109 
 4680  196.353    5.414    3.368   34.725   27.408    0.394    1.109 
 4681  196.526    5.414    3.368   34.725   27.408    0.371    1.109 
 4683  196.700    5.413    3.368   34.725   27.408    0.371    1.109 
 4684  196.873    5.413    3.368   34.725   27.409    0.371    1.109 
 4687  197.047    5.416    3.368   34.725   27.409    0.371    1.109 
 4706  197.220    5.404    3.367   34.725   27.409    0.348    1.105 
 4709  197.394    5.403    3.367   34.725   27.409    0.348    1.105 
 4710  197.567    5.403    3.367   34.725   27.410    0.348    1.105 
 4711  197.741    5.403    3.367   34.725   27.410    0.348    1.105 
 4712  197.914    5.403    3.367   34.725   27.410    0.348    1.105 
 4713  198.088    5.403    3.367   34.725   27.410    0.348    1.105 
 4715  198.435    5.402    3.367   34.725   27.410    0.348    1.105 
 4717  198.782    5.401    3.367   34.725   27.410    0.371    1.105 
 4718  198.955    5.400    3.367   34.724   27.410    0.371    1.105 
 4719  199.129    5.400    3.367   34.724   27.410    0.371    1.105 
 4720  199.302    5.398    3.367   34.724   27.410    0.371    1.105 
 4721  199.476    5.390    3.366   34.724   27.411    0.371    1.105 
 4722  199.649    5.378    3.365   34.724   27.412    0.371    1.105 
 4723  199.823    5.358    3.364   34.724   27.414    0.371    1.105 
 4725  200.170    5.325    3.360   34.724   27.414    0.371    1.109 
 4727  200.343    5.319    3.360   34.724   27.415    0.371    1.105 
 4728  200.517    5.313    3.359   34.723   27.415    0.371    1.109 
 4729  200.690    5.310    3.358   34.722   27.415    0.371    1.109 
 4731  200.864    5.309    3.358   34.719   27.415    0.371    1.105 
 4734  201.038    5.309    3.358   34.718   27.415    0.371    1.109 
 4736  201.211    5.309    3.358   34.717   27.416    0.371    1.105 
 4742  201.385    5.308    3.358   34.717   27.416    0.348    1.105 
 4749  201.558    5.306    3.358   34.716   27.416    0.371    1.105 
 4753  201.732    5.302    3.357   34.716   27.416    0.394    1.105 
 4755  201.905    5.298    3.357   34.716   27.416    0.394    1.105 
 4756  202.079    5.296    3.357   34.716   27.416    0.394    1.105 
 4758  202.252    5.292    3.357   34.716   27.416    0.394    1.105 
 4759  202.426    5.290    3.356   34.716   27.416    0.394    1.105 
 4760  202.599    5.288    3.356   34.716   27.416    0.394    1.105 
 4761  202.773    5.287    3.356   34.716   27.416    0.394    1.105 
 4762  202.946    5.287    3.356   34.716   27.416    0.394    1.105 
 4763  203.120    5.287    3.356   34.716   27.416    0.371    1.105 
 4764  203.293    5.286    3.356   34.715   27.416    0.371    1.105 
 4765  203.467    5.286    3.356   34.715   27.416    0.371    1.105 
 4766  203.640    5.285    3.356   34.715   27.416    0.371    1.105 
 4767  203.814    5.284    3.356   34.715   27.416    0.371    1.105 
 4768  204.161    5.283    3.356   34.714   27.416    0.371    1.105 
 4770  204.334    5.281    3.356   34.713   27.415    0.371    1.105 
 4772  204.508    5.280    3.355   34.713   27.415    0.371    1.105 
 4773  204.681    5.279    3.355   34.713   27.415    0.371    1.105 
 4774  204.855    5.278    3.355   34.713   27.415    0.371    1.105 
 4776  205.028    5.278    3.355   34.713   27.415    0.371    1.105 
 4778  205.202    5.278    3.355   34.713   27.415    0.371    1.105 
 4785  205.375    5.277    3.355   34.713   27.415    0.371    1.105 
 4798  205.549    5.277    3.355   34.713   27.415    0.371    1.101 
 4800  205.722    5.277    3.355   34.713   27.415    0.371    1.101 
 4802  205.896    5.277    3.355   34.713   27.415    0.371    1.101 
 4803  206.069    5.277    3.355   34.713   27.415    0.371    1.105 
 4805  206.243    5.277    3.355   34.713   27.415    0.371    1.101 
 4806  206.416    5.278    3.355   34.713   27.415    0.348    1.101 
 4807  206.590    5.278    3.355   34.713   27.415    0.371    1.101 
 4809  206.937    5.279    3.355   34.713   27.415    0.348    1.101 
 4810  207.110    5.279    3.356   34.714   27.416    0.371    1.101 
 4811  207.284    5.281    3.356   34.715   27.416    0.371    1.101 
 4813  207.631    5.283    3.356   34.715   27.416    0.348    1.101 
 4814  207.804    5.285    3.356   34.717   27.417    0.371    1.101 
 4815  207.978    5.285    3.356   34.719   27.419    0.371    1.101 
 4816  208.151    5.286    3.356   34.719   27.419    0.348    1.101 
 4817  208.325    5.286    3.357   34.719   27.419    0.348    1.101 
 4818  208.498    5.286    3.357   34.721   27.420    0.348    1.101 
 4819  208.672    5.286    3.357   34.721   27.420    0.371    1.101 
 4820  208.845    5.286    3.357   34.721   27.420    0.371    1.101 
 4821  209.019    5.286    3.357   34.721   27.420    0.371    1.101 
 4822  209.192    5.286    3.357   34.721   27.420    0.371    1.101 
 4824  209.366    5.286    3.357   34.721   27.421    0.371    1.101 
 4825  209.539    5.286    3.357   34.721   27.421    0.371    1.101 
 4826  209.713    5.286    3.357   34.721   27.421    0.371    1.101 
 4828  209.886    5.282    3.356   34.721   27.421    0.394    1.101 
 4830  210.060    5.282    3.356   34.724   27.423    0.394    1.101 
 4832  210.233    5.278    3.356   34.724   27.424    0.394    1.101 
 4835  210.407    5.275    3.356   34.724   27.424    0.394    1.101 
 4838  210.580    5.269    3.355   34.724   27.425    0.394    1.101 
 4843  210.754    5.268    3.355   34.724   27.425    0.371    1.101 
 4846  210.927    5.268    3.355   34.724   27.425    0.371    1.101 
 4848  211.101    5.268    3.355   34.724   27.425    0.371    1.101 
 4850  211.274    5.268    3.355   34.724   27.425    0.371    1.101 
 4852  211.448    5.271    3.355   34.724   27.425    0.371    1.101 
 4853  211.621    5.271    3.355   34.724   27.425    0.371    1.101 
 4854  211.795    5.271    3.356   34.727   27.427    0.371    1.101 
 4856  211.968    5.271    3.356   34.727   27.427    0.371    1.101 
 4857  212.142    5.271    3.356   34.727   27.427    0.371    1.101 
 4858  212.315    5.271    3.356   34.727   27.427    0.371    1.101 
 4860  212.662    5.271    3.356   34.727   27.427    0.371    1.101 
 4862  212.836    5.271    3.356   34.727   27.427    0.371    1.101 
 4863  213.182    5.271    3.356   34.727   27.427    0.371    1.101 
 4865  213.356    5.270    3.356   34.727   27.427    0.371    1.101 
 4866  213.529    5.268    3.356   34.727   27.428    0.371    1.101 
 4867  213.703    5.267    3.356   34.727   27.428    0.371    1.101 
 4868  213.876    5.266    3.356   34.729   27.430    0.371    1.101 
 4869  214.050    5.266    3.356   34.729   27.430    0.371    1.101 
 4871  214.223    5.266    3.356   34.729   27.430    0.371    1.101 
 4872  214.397    5.266    3.356   34.729   27.430    0.371    1.101 
 4874  214.570    5.266    3.356   34.730   27.430    0.348    1.101 
 4877  214.744    5.266    3.356   34.730   27.430    0.348    1.101 
 4896  214.917    5.259    3.355   34.730   27.431    0.324    1.097 
 4899  215.091    5.254    3.355   34.730   27.431    0.324    1.097 
 4900  215.264    5.251    3.355   34.730   27.431    0.324    1.097 
 4902  215.438    5.250    3.354   34.730   27.431    0.324    1.097 
 4903  215.611    5.244    3.354   34.729   27.432    0.324    1.097 
 4904  215.785    5.236    3.353   34.729   27.432    0.324    1.097 
 4905  215.958    5.234    3.353   34.727   27.432    0.324    1.097 
 4906  216.132    5.234    3.353   34.727   27.432    0.324    1.097 
 4907  216.305    5.231    3.353   34.726   27.432    0.324    1.097 
 4908  216.479    5.230    3.352   34.726   27.432    0.348    1.097 
 4909  216.826    5.227    3.352   34.726   27.432    0.324    1.097 
 4911  217.173    5.225    3.352   34.726   27.432    0.348    1.097 
 4913  217.520    5.225    3.352   34.726   27.432    0.371    1.097 
 4914  217.693    5.225    3.352   34.726   27.432    0.371    1.097 
 4915  217.867    5.225    3.352   34.727   27.432    0.371    1.097 
 4916  218.040    5.225    3.352   34.727   27.433    0.324    1.097 
 4917  218.214    5.225    3.352   34.729   27.433    0.371    1.097 
 4919  218.387    5.225    3.352   34.729   27.434    0.371    1.097 
 4920  218.561    5.225    3.352   34.729   27.434    0.371    1.097 
 4921  218.734    5.229    3.353   34.729   27.434    0.371    1.097 
 4923  218.908    5.232    3.353   34.729   27.434    0.371    1.097 
 4925  219.081    5.232    3.353   34.729   27.434    0.371    1.097 
 4928  219.255    5.232    3.353   34.729   27.434    0.371    1.097 
 4929  219.428    5.232    3.353   34.729   27.434    0.371    1.097 
 4933  219.602    5.232    3.353   34.730   27.434    0.348    1.097 
 4937  219.775    5.231    3.353   34.733   27.436    0.371    1.097 
 4940  219.949    5.226    3.353   34.735   27.439    0.348    1.097 
 4942  220.122    5.226    3.353   34.735   27.439    0.348    1.097 
 4944  220.296    5.225    3.353   34.735   27.439    0.348    1.097 
 4946  220.469    5.225    3.353   34.735   27.439    0.348    1.097 
 4948  220.643    5.224    3.353   34.735   27.439    0.348    1.097 
 4949  220.816    5.223    3.353   34.735   27.439    0.348    1.097 
 4950  220.990    5.223    3.353   34.736   27.440    0.348    1.097 
 4952  221.163    5.223    3.353   34.736   27.440    0.348    1.097 
 4953  221.337    5.223    3.353   34.737   27.441    0.348    1.097 
 4954  221.510    5.223    3.353   34.737   27.441    0.348    1.097 
 4955  221.684    5.222    3.353   34.737   27.441    0.348    1.097 
 4957  221.857    5.220    3.353   34.737   27.441    0.348    1.097 
 4958  222.031    5.219    3.352   34.737   27.441    0.324    1.097 
 4959  222.204    5.219    3.352   34.737   27.441    0.324    1.097 
 4960  222.378    5.219    3.352   34.737   27.442    0.324    1.097 
 4961  222.551    5.216    3.352   34.738   27.442    0.324    1.097 
 4962  222.725    5.212    3.352   34.737   27.442    0.348    1.097 
 4964  222.898    5.211    3.352   34.737   27.442    0.348    1.097 
 4965  223.071    5.211    3.352   34.737   27.442    0.348    1.097 
 4967  223.245    5.211    3.352   34.737   27.442    0.324    1.097 
 4968  223.418    5.211    3.352   34.737   27.442    0.324    1.097 
 4970  223.592    5.208    3.352   34.736   27.442    0.348    1.097 
 4974  223.765    5.205    3.351   34.733   27.442    0.324    1.097 
 4975  223.939    5.204    3.351   34.733   27.443    0.324    1.097 
 4983  224.112    5.200    3.351   34.736   27.443    0.348    1.093 
 4988  224.286    5.188    3.350   34.736   27.443    0.371    1.093 
 4991  224.459    5.182    3.349   34.736   27.443    0.371    1.093 
 4994  224.633    5.178    3.349   34.733   27.443    0.394    1.093 
 4995  224.806    5.177    3.349   34.733   27.444    0.394    1.093 
 4998  224.980    5.171    3.348   34.733   27.444    0.371    1.093 
 4999  225.153    5.170    3.348   34.732   27.444    0.371    1.093 
 5002  225.327    5.164    3.347   34.732   27.444    0.394    1.093 
 5003  225.500    5.161    3.347   34.732   27.444    0.394    1.093 
 5005  225.847    5.160    3.347   34.732   27.444    0.394    1.093 
 5007  226.021    5.156    3.347   34.732   27.444    0.394    1.093 
 5008  226.194    5.154    3.346   34.731   27.444    0.394    1.093 
 5009  226.368    5.154    3.346   34.731   27.444    0.394    1.093 
 5011  226.541    5.149    3.346   34.731   27.444    0.394    1.093 
 5012  226.715    5.146    3.346   34.730   27.444    0.394    1.093 
 5014  226.888    5.144    3.345   34.730   27.444    0.394    1.093 
 5015  227.062    5.142    3.345   34.730   27.445    0.394    1.093 
 5016  227.235    5.138    3.345   34.728   27.445    0.394    1.093 
 5018  227.409    5.127    3.344   34.728   27.445    0.371    1.093 
 5019  227.582    5.123    3.344   34.727   27.445    0.394    1.093 
 5021  227.756    5.119    3.343   34.727   27.445    0.394    1.093 
 5023  227.929    5.116    3.343   34.727   27.445    0.371    1.093 
 5027  228.103    5.111    3.342   34.727   27.446    0.371    1.093 
 5029  228.276    5.109    3.342   34.727   27.446    0.371    1.093 
 5031  228.450    5.109    3.342   34.727   27.446    0.371    1.093 
 5034  228.623    5.107    3.342   34.727   27.447    0.394    1.093 
 5037  228.797    5.104    3.342   34.727   27.447    0.371    1.093 
 5039  228.970    5.095    3.341   34.727   27.447    0.394    1.093 
 5042  229.143    5.089    3.340   34.726   27.448    0.371    1.093 
 5043  229.317    5.088    3.340   34.725   27.448    0.371    1.093 
 5044  229.490    5.082    3.340   34.725   27.448    0.371    1.093 
 5046  229.664    5.068    3.338   34.724   27.448    0.371    1.093 
 5048  229.837    5.039    3.336   34.724   27.452    0.371    1.093 
 5049  230.011    5.021    3.334   34.724   27.454    0.394    1.093 
 5050  230.184    5.017    3.333   34.723   27.454    0.394    1.093 
 5051  230.358    5.000    3.333   34.722   27.455    0.394    1.093 
 5052  230.531    4.991    3.331   34.721   27.455    0.394    1.093 
 5053  230.705    4.982    3.330   34.721   27.456    0.394    1.093 
 5054  230.878    4.975    3.330   34.720   27.456    0.371    1.093 
 5056  231.052    4.954    3.327   34.719   27.456    0.371    1.093 
 5057  231.225    4.945    3.327   34.718   27.457    0.371    1.093 
 5058  231.399    4.942    3.326   34.716   27.457    0.371    1.093 
 5059  231.572    4.940    3.326   34.715   27.458    0.371    1.093 
 5060  231.746    4.929    3.325   34.714   27.458    0.371    1.093 
 5061  231.919    4.910    3.324   34.714   27.459    0.394    1.093 
 5062  232.093    4.899    3.322   34.714   27.460    0.394    1.089 
 5064  232.266    4.891    3.322   34.714   27.461    0.394    1.089 
 5065  232.440    4.889    3.321   34.713   27.461    0.394    1.089 
 5067  232.613    4.884    3.321   34.712   27.461    0.394    1.089 
 5069  232.787    4.880    3.320   34.712   27.461    0.394    1.089 
 5072  233.134    4.868    3.319   34.711   27.461    0.371    1.089 
 5075  233.307    4.855    3.318   34.710   27.463    0.371    1.089 
 5078  233.481    4.852    3.318   34.710   27.463    0.394    1.089 
 5079  233.654    4.850    3.318   34.710   27.463    0.394    1.089 
 5081  233.827    4.846    3.317   34.710   27.463    0.371    1.089 
 5084  234.001    4.839    3.317   34.709   27.463    0.371    1.089 
 5086  234.174    4.836    3.316   34.709   27.464    0.371    1.089 
 5087  234.348    4.834    3.316   34.708   27.464    0.371    1.089 
 5089  234.521    4.833    3.316   34.708   27.464    0.371    1.089 
 5091  234.695    4.831    3.316   34.708   27.464    0.371    1.089 
 5093  234.868    4.822    3.315   34.708   27.465    0.371    1.089 
 5094  235.042    4.812    3.314   34.709   27.466    0.371    1.089 
 5097  235.215    4.806    3.314   34.708   27.466    0.348    1.089 
 5098  235.389    4.806    3.314   34.708   27.466    0.348    1.089 
 5099  235.562    4.806    3.314   34.708   27.466    0.348    1.089 
 5106  235.736    4.806    3.313   34.708   27.466    0.348    1.089 
 5110  235.909    4.806    3.313   34.707   27.466    0.348    1.089 
 5115  236.083    4.806    3.313   34.708   27.467    0.371    1.089 
 5119  236.256    4.800    3.313   34.708   27.467    0.371    1.089 
 5121  236.430    4.798    3.313   34.708   27.467    0.371    1.089 
 5123  236.603    4.797    3.313   34.708   27.467    0.371    1.089 
 5124  236.777    4.795    3.313   34.708   27.468    0.371    1.089 
 5126  236.950    4.794    3.312   34.709   27.468    0.371    1.089 
 5127  237.124    4.791    3.312   34.709   27.469    0.371    1.089 
 5129  237.297    4.779    3.311   34.709   27.470    0.371    1.089 
 5130  237.471    4.777    3.311   34.709   27.470    0.394    1.089 
 5131  237.644    4.777    3.311   34.709   27.470    0.394    1.089 
 5132  237.817    4.776    3.311   34.709   27.470    0.371    1.089 
 5133  237.991    4.775    3.311   34.709   27.470    0.394    1.089 
 5134  238.164    4.775    3.311   34.709   27.471    0.371    1.089 
 5135  238.338    4.773    3.311   34.709   27.471    0.371    1.089 
 5137  238.685    4.773    3.311   34.709   27.471    0.394    1.089 
 5139  239.032    4.773    3.311   34.709   27.471    0.394    1.089 
 5141  239.205    4.773    3.311   34.710   27.472    0.394    1.089 
 5142  239.379    4.773    3.311   34.710   27.472    0.394    1.089 
 5143  239.552    4.773    3.311   34.711   27.472    0.394    1.089 
 5145  239.726    4.775    3.311   34.711   27.472    0.394    1.085 
 5146  239.899    4.776    3.311   34.711   27.472    0.394    1.085 
 5147  240.073    4.777    3.311   34.711   27.472    0.394    1.085 
 5149  240.246    4.777    3.312   34.712   27.472    0.394    1.085 
 5150  240.420    4.779    3.312   34.712   27.472    0.394    1.085 
 5153  240.593    4.781    3.312   34.712   27.472    0.417    1.085 
 5156  240.767    4.782    3.312   34.713   27.473    0.417    1.085 
 5159  240.940    4.782    3.312   34.714   27.474    0.394    1.085 
 5163  241.113    4.782    3.312   34.715   27.475    0.394    1.085 
 5166  241.287    4.780    3.312   34.716   27.475    0.394    1.085 
 5169  241.460    4.778    3.312   34.716   27.476    0.371    1.085 
 5171  241.634    4.777    3.312   34.716   27.476    0.371    1.085 
 5173  241.807    4.776    3.312   34.717   27.476    0.371    1.085 
 5175  241.981    4.773    3.312   34.717   27.477    0.348    1.085 
 5177  242.154    4.766    3.311   34.717   27.478    0.348    1.085 
 5178  242.328    4.763    3.311   34.717   27.478    0.348    1.085 
 5179  242.501    4.760    3.311   34.717   27.478    0.348    1.085 
 5181  242.675    4.751    3.310   34.718   27.480    0.348    1.085 
 5182  243.022    4.748    3.310   34.718   27.480    0.348    1.085 
 5185  243.369    4.730    3.308   34.718   27.482    0.371    1.085 
 5187  243.542    4.717    3.307   34.718   27.484    0.371    1.085 
 5189  243.716    4.701    3.305   34.718   27.485    0.371    1.085 
 5190  243.889    4.696    3.305   34.718   27.486    0.371    1.085 
 5191  244.063    4.689    3.304   34.716   27.486    0.348    1.085 
 5192  244.236    4.683    3.304   34.715   27.486    0.348    1.085 
 5193  244.409    4.678    3.303   34.714   27.486    0.371    1.085 
 5195  244.583    4.668    3.302   34.714   27.486    0.348    1.085 
 5196  244.756    4.660    3.302   34.714   27.487    0.348    1.085 
 5198  244.930    4.643    3.300   34.713   27.488    0.371    1.085 
 5199  245.103    4.633    3.299   34.713   27.489    0.371    1.081 
 5200  245.277    4.626    3.298   34.710   27.489    0.371    1.081 
 5202  245.450    4.615    3.297   34.709   27.489    0.394    1.085 
 5204  245.624    4.603    3.296   34.709   27.489    0.371    1.085 
 5206  245.797    4.598    3.295   34.708   27.489    0.371    1.081 
 5208  245.971    4.593    3.295   34.707   27.489    0.371    1.085 
 5211  246.144    4.588    3.294   34.706   27.490    0.348    1.081 
 5214  246.318    4.585    3.294   34.706   27.490    0.371    1.085 
 5217  246.491    4.574    3.293   34.706   27.490    0.371    1.085 
 5221  246.665    4.572    3.293   34.706   27.491    0.371    1.085 
 5224  246.838    4.568    3.292   34.706   27.491    0.371    1.081 
 5225  247.012    4.568    3.292   34.705   27.491    0.371    1.081 
 5228  247.185    4.562    3.292   34.705   27.492    0.371    1.085 
 5230  247.358    4.562    3.292   34.705   27.492    0.371    1.085 
 5232  247.705    4.562    3.292   34.705   27.492    0.371    1.085 
 5235  247.879    4.561    3.292   34.706   27.492    0.371    1.085 
 5236  248.052    4.561    3.292   34.706   27.492    0.371    1.085 
 5238  248.226    4.561    3.292   34.706   27.492    0.371    1.085 
 5240  248.399    4.561    3.292   34.706   27.492    0.371    1.081 
 5242  248.573    4.561    3.292   34.706   27.492    0.348    1.081 
 5244  248.746    4.561    3.292   34.706   27.492    0.348    1.085 
 5248  248.920    4.561    3.292   34.706   27.492    0.371    1.081 
 5251  249.093    4.560    3.292   34.706   27.492    0.324    1.081 
 5255  249.267    4.560    3.292   34.706   27.492    0.348    1.081 
 5258  249.440    4.560    3.292   34.706   27.492    0.371    1.081 
 5260  249.614    4.560    3.292   34.706   27.492    0.371    1.081 
 5261  249.787    4.560    3.292   34.706   27.492    0.371    1.081 
 5263  249.960    4.560    3.292   34.706   27.492    0.371    1.081 
 5265  250.134    4.560    3.292   34.706   27.492    0.371    1.081 
 5266  250.307    4.560    3.292   34.706   27.492    0.371    1.081 
 5267  250.481    4.559    3.292   34.705   27.492    0.371    1.081 
 5268  250.654    4.559    3.292   34.705   27.492    0.371    1.081 
 5270  250.828    4.556    3.291   34.701   27.489    0.371    1.081 
 5271  251.001    4.556    3.291   34.701   27.489    0.371    1.081 
 5272  251.175    4.555    3.291   34.701   27.489    0.371    1.081 
 5273  251.348    4.555    3.291   34.700   27.488    0.371    1.081 
 5274  251.522    4.555    3.291   34.700   27.488    0.371    1.081 
 5276  251.869    4.555    3.291   34.700   27.488    0.371    1.081 
 5278  252.042    4.555    3.291   34.700   27.488    0.371    1.081 
 5279  252.216    4.555    3.291   34.699   27.488    0.348    1.081 
 5280  252.389    4.555    3.291   34.699   27.488    0.348    1.081 
 5282  252.562    4.553    3.291   34.699   27.488    0.348    1.081 
 5283  252.736    4.552    3.291   34.699   27.488    0.348    1.081 
 5284  252.909    4.551    3.291   34.699   27.488    0.348    1.081 
 5285  253.083    4.547    3.291   34.699   27.488    0.348    1.081 
 5287  253.256    4.546    3.290   34.698   27.488    0.348    1.081 
 5289  253.430    4.533    3.290   34.698   27.489    0.371    1.081 
 5290  253.603    4.528    3.289   34.698   27.490    0.371    1.081 
 5292  253.777    4.524    3.289   34.699   27.490    0.371    1.081 
 5293  253.950    4.523    3.288   34.700   27.492    0.371    1.081 
 5295  254.297    4.522    3.288   34.700   27.492    0.371    1.077 
 5298  254.471    4.515    3.288   34.700   27.493    0.371    1.077 
 5299  254.644    4.511    3.287   34.701   27.493    0.371    1.077 
 5301  254.818    4.500    3.286   34.699   27.493    0.394    1.077 
 5302  254.991    4.498    3.286   34.699   27.493    0.371    1.081 
 5303  255.164    4.498    3.286   34.699   27.494    0.394    1.077 
 5305  255.338    4.497    3.286   34.700   27.495    0.394    1.081 
 5307  255.511    4.484    3.286   34.700   27.496    0.371    1.077 
 5308  255.685    4.477    3.285   34.700   27.497    0.371    1.077 
 5310  255.858    4.470    3.284   34.700   27.498    0.371    1.077 
 5312  256.032    4.466    3.283   34.701   27.499    0.371    1.077 
 5315  256.205    4.463    3.283   34.701   27.499    0.394    1.077 
 5321  256.379    4.459    3.283   34.701   27.499    0.371    1.077 
 5327  256.552    4.454    3.282   34.701   27.500    0.371    1.077 
 5329  256.726    4.450    3.282   34.701   27.501    0.371    1.077 
 5332  256.899    4.449    3.282   34.701   27.501    0.371    1.077 
 5334  257.073    4.447    3.282   34.701   27.501    0.371    1.077 
 5335  257.246    4.447    3.282   34.701   27.501    0.371    1.077 
 5338  257.593    4.447    3.282   34.701   27.501    0.371    1.077 
 5339  257.766    4.447    3.282   34.701   27.501    0.371    1.077 
 5340  257.940    4.447    3.282   34.701   27.501    0.371    1.077 
 5341  258.113    4.449    3.282   34.701   27.501    0.371    1.077 
 5342  258.287    4.449    3.282   34.702   27.501    0.394    1.077 
 5343  258.460    4.448    3.282   34.702   27.501    0.371    1.077 
 5344  258.634    4.448    3.282   34.702   27.501    0.394    1.077 
 5346  258.807    4.448    3.282   34.702   27.501    0.394    1.077 
 5347  258.981    4.448    3.282   34.702   27.501    0.371    1.077 
 5348  259.154    4.448    3.282   34.702   27.501    0.371    1.077 
 5350  259.328    4.448    3.282   34.702   27.501    0.371    1.077 
 5351  259.501    4.447    3.282   34.702   27.501    0.371    1.077 
 5352  259.674    4.447    3.282   34.702   27.501    0.371    1.077 
 5355  259.848    4.447    3.282   34.702   27.501    0.371    1.077 
 5357  260.021    4.447    3.282   34.702   27.501    0.371    1.077 
 5364  260.195    4.445    3.282   34.702   27.501    0.371    1.073 
 5371  260.368    4.444    3.282   34.702   27.502    0.394    1.073 
 5374  260.542    4.440    3.281   34.702   27.502    0.371    1.073 
 5375  260.715    4.440    3.281   34.702   27.502    0.348    1.073 
 5377  260.889    4.439    3.281   34.702   27.502    0.348    1.073 
 5380  261.236    4.435    3.281   34.702   27.502    0.348    1.073 
 5382  261.409    4.435    3.281   34.702   27.502    0.348    1.073 
 5383  261.582    4.435    3.281   34.702   27.502    0.348    1.073 
 5384  261.756    4.435    3.281   34.702   27.503    0.348    1.073 
 5385  261.929    4.435    3.281   34.702   27.503    0.348    1.073 
 5386  262.103    4.435    3.281   34.702   27.503    0.348    1.073 
 5388  262.450    4.435    3.281   34.702   27.503    0.348    1.073 
 5390  262.623    4.439    3.281   34.702   27.503    0.348    1.073 
 5391  262.797    4.446    3.282   34.702   27.503    0.348    1.073 
 5392  262.970    4.453    3.283   34.703   27.503    0.348    1.073 
 5393  263.144    4.459    3.284   34.706   27.503    0.348    1.073 
 5395  263.317    4.459    3.284   34.710   27.506    0.348    1.073 
 5396  263.491    4.460    3.284   34.711   27.506    0.371    1.073 
 5398  263.664    4.465    3.285   34.711   27.506    0.371    1.073 
 5400  263.837    4.466    3.285   34.714   27.506    0.371    1.073 
 5401  264.011    4.467    3.285   34.715   27.507    0.371    1.073 
 5403  264.184    4.477    3.285   34.716   27.507    0.371    1.073 
 5406  264.358    4.510    3.289   34.716   27.508    0.371    1.073 
 5408  264.531    4.516    3.290   34.718   27.509    0.394    1.073 
 5411  264.705    4.519    3.290   34.718   27.509    0.394    1.073 
 5414  264.878    4.522    3.291   34.721   27.509    0.394    1.073 
 5416  265.052    4.523    3.291   34.723   27.509    0.394    1.073 
 5417  265.225    4.530    3.291   34.723   27.510    0.394    1.073 
 5419  265.399    4.535    3.292   34.724   27.510    0.394    1.073 
 5421  265.572    4.536    3.292   34.725   27.510    0.371    1.073 
 5422  265.745    4.536    3.292   34.726   27.511    0.371    1.073 
 5424  265.919    4.537    3.293   34.728   27.512    0.371    1.073 
 5425  266.092    4.537    3.293   34.728   27.512    0.371    1.073 
 5427  266.266    4.538    3.293   34.728   27.512    0.348    1.073 
 5428  266.439    4.538    3.293   34.728   27.512    0.348    1.073 
 5429  266.613    4.538    3.293   34.728   27.512    0.348    1.073 
 5430  266.786    4.540    3.293   34.728   27.512    0.324    1.073 
 5432  266.960    4.541    3.293   34.728   27.512    0.324    1.073 
 5434  267.133    4.541    3.293   34.728   27.512    0.324    1.073 
 5435  267.307    4.541    3.293   34.728   27.512    0.324    1.073 
 5437  267.480    4.541    3.293   34.728   27.512    0.324    1.073 
 5439  267.653    4.541    3.293   34.728   27.512    0.324    1.073 
 5442  267.827    4.541    3.293   34.728   27.512    0.348    1.073 
 5444  268.000    4.541    3.293   34.728   27.512    0.324    1.073 
 5446  268.174    4.541    3.293   34.728   27.512    0.324    1.069 
 5449  268.347    4.541    3.293   34.728   27.512    0.324    1.069 
 5451  268.521    4.541    3.293   34.728   27.511    0.348    1.069 
 5452  268.694    4.541    3.293   34.728   27.511    0.348    1.069 
 5455  268.868    4.541    3.293   34.727   27.511    0.371    1.069 
 5456  269.041    4.542    3.293   34.726   27.510    0.371    1.069 
 5458  269.214    4.543    3.293   34.726   27.510    0.348    1.069 
 5460  269.388    4.543    3.293   34.726   27.510    0.348    1.069 
 5462  269.561    4.543    3.293   34.726   27.510    0.371    1.069 
 5464  269.735    4.543    3.293   34.726   27.510    0.371    1.069 
 5465  269.908    4.543    3.293   34.726   27.510    0.371    1.069 
 5468  270.082    4.543    3.293   34.726   27.510    0.371    1.069 
 5469  270.255    4.543    3.293   34.726   27.510    0.371    1.069 
 5472  270.429    4.542    3.293   34.725   27.510    0.371    1.069 
 5475  270.602    4.542    3.293   34.725   27.510    0.371    1.069 
 5477  270.776    4.542    3.293   34.725   27.510    0.371    1.069 
 5479  270.949    4.542    3.293   34.725   27.510    0.371    1.069 
 5481  271.122    4.541    3.293   34.725   27.510    0.371    1.069 
 5484  271.296    4.541    3.293   34.726   27.510    0.371    1.069 
 5485  271.469    4.541    3.293   34.726   27.510    0.371    1.069 
 5487  271.643    4.541    3.293   34.726   27.510    0.371    1.069 
 5489  271.816    4.541    3.293   34.726   27.510    0.371    1.069 
 5490  271.990    4.541    3.293   34.726   27.510    0.371    1.069 
 5492  272.163    4.542    3.293   34.726   27.510    0.371    1.069 
 5493  272.337    4.542    3.293   34.726   27.510    0.371    1.069 
 5494  272.510    4.542    3.294   34.735   27.518    0.371    1.069 
 5496  272.684    4.542    3.294   34.735   27.518    0.371    1.069 
 5498  272.857    4.542    3.294   34.736   27.518    0.371    1.069 
 5499  273.030    4.542    3.294   34.736   27.518    0.371    1.069 
 5501  273.204    4.542    3.294   34.736   27.518    0.371    1.069 
 5502  273.377    4.542    3.294   34.736   27.518    0.371    1.069 
 5504  273.551    4.542    3.294   34.736   27.518    0.371    1.069 
 5505  273.724    4.542    3.294   34.736   27.518    0.371    1.069 
 5507  273.898    4.542    3.294   34.736   27.518    0.371    1.069 
 5509  274.071    4.542    3.294   34.736   27.518    0.371    1.069 
 5511  274.418    4.541    3.294   34.736   27.518    0.371    1.069 
 5514  274.591    4.540    3.294   34.736   27.518    0.371    1.069 
 5515  274.765    4.539    3.294   34.736   27.518    0.371    1.069 
 5518  274.938    4.529    3.293   34.736   27.519    0.394    1.065 
 5519  275.112    4.525    3.292   34.736   27.520    0.394    1.065 
 5521  275.285    4.516    3.292   34.735   27.521    0.394    1.065 
 5523  275.459    4.505    3.291   34.735   27.521    0.394    1.065 
 5525  275.632    4.498    3.290   34.735   27.521    0.417    1.065 
 5527  275.806    4.484    3.289   34.734   27.521    0.394    1.065 
 5530  275.979    4.471    3.287   34.734   27.521    0.394    1.065 
 5532  276.152    4.463    3.287   34.732   27.521    0.394    1.065 
 5534  276.326    4.456    3.286   34.732   27.521    0.417    1.065 
 5535  276.499    4.456    3.286   34.731   27.521    0.417    1.065 
 5538  276.673    4.453    3.286   34.731   27.521    0.394    1.065 
 5540  276.846    4.452    3.285   34.729   27.521    0.371    1.065 
 5541  277.020    4.452    3.285   34.728   27.521    0.371    1.065 
 5544  277.193    4.451    3.285   34.727   27.521    0.371    1.065 
 5546  277.367    4.451    3.285   34.726   27.521    0.394    1.065 
 5547  277.540    4.449    3.285   34.724   27.521    0.371    1.065 
 5548  277.713    4.447    3.285   34.724   27.521    0.394    1.065 
 5551  277.887    4.443    3.285   34.724   27.521    0.371    1.065 
 5552  278.060    4.442    3.285   34.724   27.521    0.371    1.065 
 5553  278.234    4.441    3.284   34.724   27.521    0.348    1.065 
 5554  278.407    4.441    3.284   34.724   27.521    0.348    1.065 
 5556  278.581    4.441    3.284   34.724   27.521    0.348    1.065 
 5557  278.754    4.440    3.284   34.724   27.521    0.348    1.065 
 5558  278.928    4.440    3.284   34.725   27.521    0.348    1.065 
 5560  279.101    4.439    3.284   34.726   27.521    0.324    1.065 
 5561  279.448    4.438    3.284   34.726   27.522    0.324    1.065 
 5563  279.621    4.438    3.284   34.726   27.522    0.348    1.065 
 5564  279.795    4.437    3.284   34.726   27.522    0.348    1.065 
 5565  279.968    4.436    3.284   34.726   27.522    0.348    1.065 
 5566  280.142    4.436    3.284   34.726   27.522    0.348    1.065 
 5567  280.315    4.435    3.284   34.726   27.522    0.348    1.065 
 5569  280.489    4.434    3.284   34.726   27.522    0.348    1.065 
 5571  280.662    4.433    3.284   34.726   27.522    0.348    1.065 
 5572  280.836    4.433    3.284   34.726   27.522    0.348    1.065 
 5573  281.009    4.433    3.284   34.726   27.522    0.348    1.065 
 5576  281.182    4.433    3.284   34.727   27.523    0.371    1.065 
 5579  281.356    4.433    3.284   34.727   27.523    0.394    1.065 
 5583  281.529    4.433    3.284   34.727   27.523    0.394    1.065 
 5592  281.703    4.434    3.284   34.728   27.524    0.371    1.061 
 5597  281.876    4.434    3.284   34.729   27.524    0.371    1.061 
 5601  282.050    4.435    3.284   34.729   27.524    0.371    1.061 
 5604  282.223    4.435    3.284   34.729   27.524    0.371    1.061 
 5606  282.396    4.436    3.284   34.729   27.524    0.348    1.061 
 5608  282.570    4.438    3.284   34.729   27.524    0.348    1.061 
 5610  282.743    4.439    3.284   34.729   27.524    0.371    1.061 
 5611  282.917    4.440    3.285   34.730   27.525    0.371    1.061 
 5613  283.090    4.441    3.285   34.731   27.525    0.371    1.061 
 5614  283.264    4.441    3.285   34.731   27.525    0.371    1.061 
 5615  283.437    4.441    3.285   34.731   27.525    0.348    1.061 
 5617  283.784    4.441    3.285   34.731   27.525    0.371    1.061 
 5618  283.957    4.441    3.285   34.731   27.525    0.371    1.061 
 5620  284.131    4.441    3.285   34.731   27.525    0.371    1.061 
 5621  284.304    4.441    3.285   34.731   27.525    0.348    1.061 
 5622  284.478    4.440    3.285   34.731   27.525    0.371    1.061 
 5623  284.651    4.440    3.285   34.731   27.526    0.371    1.061 
 5625  284.825    4.435    3.285   34.731   27.526    0.371    1.061 
 5626  284.998    4.434    3.285   34.731   27.526    0.371    1.061 
 5627  285.172    4.432    3.284   34.731   27.526    0.371    1.061 
 5628  285.345    4.429    3.284   34.731   27.527    0.371    1.061 
 5629  285.518    4.424    3.284   34.735   27.529    0.371    1.061 
 5630  285.692    4.424    3.284   34.735   27.529    0.371    1.061 
 5631  285.865    4.424    3.284   34.735   27.529    0.348    1.061 
 5633  286.212    4.424    3.284   34.735   27.529    0.348    1.061 
 5635  286.386    4.424    3.284   34.735   27.529    0.348    1.061 
 5636  286.559    4.424    3.284   34.735   27.529    0.348    1.061 
 5637  286.732    4.424    3.284   34.736   27.529    0.348    1.061 
 5638  286.906    4.424    3.284   34.736   27.529    0.348    1.061 
 5640  287.079    4.439    3.285   34.736   27.530    0.348    1.061 
 5641  287.253    4.439    3.285   34.736   27.530    0.348    1.061 
 5642  287.426    4.440    3.286   34.736   27.530    0.371    1.061 
 5643  287.600    4.444    3.286   34.736   27.530    0.371    1.061 
 5645  287.773    4.448    3.286   34.737   27.530    0.348    1.061 
 5646  287.947    4.450    3.286   34.737   27.530    0.348    1.061 
 5648  288.120    4.452    3.287   34.738   27.530    0.348    1.061 
 5649  288.293    4.453    3.287   34.738   27.530    0.348    1.061 
 5653  288.467    4.453    3.287   34.738   27.530    0.348    1.061 
 5656  288.640    4.454    3.287   34.739   27.530    0.371    1.061 
 5659  288.814    4.454    3.287   34.739   27.530    0.371    1.061 
 5670  288.987    4.471    3.289   34.740   27.530    0.324    1.057 
 5675  289.161    4.487    3.290   34.742   27.530    0.348    1.057 
 5677  289.334    4.488    3.290   34.743   27.530    0.348    1.057 
 5679  289.508    4.489    3.291   34.744   27.530    0.348    1.057 
 5680  289.681    4.489    3.291   34.745   27.531    0.348    1.057 
 5681  289.854    4.489    3.291   34.746   27.531    0.348    1.057 
 5682  290.028    4.489    3.291   34.747   27.531    0.348    1.057 
 5683  290.201    4.490    3.291   34.747   27.531    0.348    1.057 
 5684  290.375    4.491    3.291   34.747   27.531    0.348    1.057 
 5685  290.548    4.492    3.291   34.747   27.531    0.348    1.057 
 5686  290.722    4.500    3.292   34.747   27.531    0.371    1.057 
 5687  290.895    4.500    3.292   34.747   27.531    0.348    1.057 
 5688  291.068    4.500    3.292   34.747   27.531    0.371    1.057 
 5689  291.242    4.500    3.292   34.747   27.531    0.371    1.057 
 5690  291.415    4.500    3.292   34.747   27.531    0.348    1.061 
 5691  291.762    4.500    3.292   34.747   27.531    0.371    1.061 
 5692  291.936    4.500    3.292   34.747   27.531    0.348    1.061 
 5693  292.109    4.500    3.292   34.747   27.531    0.371    1.061 
 5694  292.282    4.500    3.292   34.747   27.531    0.371    1.061 
 5695  292.456    4.500    3.292   34.747   27.531    0.371    1.061 
 5696  292.629    4.500    3.292   34.747   27.531    0.371    1.061 
 5697  292.803    4.500    3.292   34.747   27.531    0.371    1.061 
 5699  292.976    4.500    3.292   34.747   27.531    0.348    1.057 
 5700  293.150    4.497    3.292   34.749   27.533    0.371    1.057 
 5702  293.323    4.495    3.292   34.749   27.534    0.371    1.057 
 5704  293.497    4.495    3.292   34.751   27.535    0.348    1.057 
 5709  293.670    4.494    3.292   34.751   27.535    0.348    1.057 
 5721  293.843    4.491    3.292   34.752   27.536    0.348    1.053 
 5724  294.017    4.490    3.292   34.752   27.536    0.324    1.053 
 5726  294.190    4.489    3.292   34.752   27.537    0.348    1.053 
 5728  294.364    4.485    3.292   34.752   27.537    0.324    1.053 
 5729  294.537    4.482    3.291   34.753   27.538    0.324    1.053 
 5730  294.711    4.471    3.290   34.754   27.540    0.348    1.053 
 5732  294.884    4.452    3.289   34.755   27.543    0.348    1.053 
 5733  295.057    4.451    3.288   34.755   27.543    0.348    1.057 
 5734  295.231    4.448    3.288   34.755   27.543    0.324    1.057 
 5735  295.404    4.437    3.287   34.755   27.543    0.324    1.057 
 5736  295.578    4.435    3.287   34.755   27.543    0.324    1.057 
 5737  295.751    4.434    3.287   34.754   27.543    0.324    1.057 
 5738  296.098    4.433    3.287   34.754   27.544    0.324    1.057 
 5739  296.271    4.433    3.287   34.754   27.544    0.324    1.057 
 5740  296.445    4.433    3.287   34.753   27.544    0.324    1.057 
 5741  296.618    4.431    3.287   34.753   27.544    0.324    1.057 
 5742  296.792    4.431    3.287   34.754   27.545    0.324    1.057 
 5743  297.139    4.430    3.286   34.753   27.545    0.324    1.057 
 5744  297.312    4.426    3.286   34.753   27.545    0.324    1.057 
 5746  297.485    4.412    3.285   34.752   27.545    0.324    1.057 
 5747  297.659    4.405    3.284   34.754   27.546    0.324    1.057 
 5748  298.006    4.402    3.284   34.754   27.546    0.324    1.057 
 5751  298.353    4.400    3.284   34.752   27.547    0.324    1.057 
 5753  298.526    4.395    3.283   34.752   27.547    0.348    1.057 
 5754  298.699    4.395    3.283   34.751   27.547    0.348    1.057 
 5757  298.873    4.395    3.283   34.751   27.547    0.348    1.057 
 5776  299.046    4.388    3.283   34.751   27.547    0.371    1.057 
 5780  299.220    4.384    3.282   34.751   27.547    0.371    1.057 
 5782  299.393    4.383    3.282   34.751   27.547    0.371    1.057 
 5784  299.567    4.382    3.282   34.750   27.547    0.371    1.057 
 5785  299.740    4.375    3.282   34.750   27.548    0.371    1.057 
 5786  299.913    4.366    3.281   34.750   27.548    0.348    1.053 
 5787  300.087    4.361    3.280   34.749   27.548    0.348    1.053 
 5788  300.260    4.353    3.280   34.748   27.548    0.348    1.053 
 5789  300.434    4.347    3.279   34.748   27.549    0.348    1.053 
 5790  300.607    4.346    3.279   34.748   27.549    0.348    1.053 
 5791  300.954    4.346    3.279   34.748   27.549    0.348    1.053 
 5792  301.127    4.342    3.279   34.748   27.550    0.348    1.053 
 5793  301.301    4.336    3.278   34.748   27.550    0.348    1.053 
 5794  301.474    4.326    3.277   34.748   27.551    0.348    1.053 
 5795  301.821    4.315    3.276   34.748   27.552    0.348    1.053 
 5796  301.995    4.304    3.275   34.747   27.553    0.348    1.053 
 5797  302.341    4.304    3.275   34.747   27.553    0.348    1.053 
 5798  302.515    4.304    3.275   34.748   27.553    0.348    1.053 
 5799  302.688    4.304    3.275   34.748   27.553    0.348    1.053 
 5800  303.035    4.304    3.275   34.748   27.553    0.348    1.053 
 5801  303.209    4.304    3.275   34.748   27.553    0.348    1.053 
 5802  303.382    4.304    3.275   34.747   27.553    0.348    1.053 
 5803  303.555    4.304    3.275   34.747   27.553    0.348    1.053 
 5804  303.729    4.304    3.275   34.747   27.553    0.348    1.053 
 5805  303.902    4.304    3.275   34.747   27.553    0.348    1.053 
 5806  304.076    4.304    3.275   34.747   27.553    0.348    1.053 
 5807  304.249    4.307    3.276   34.747   27.553    0.348    1.053 
 5809  304.423    4.309    3.276   34.750   27.555    0.371    1.053 
 5811  304.596    4.309    3.276   34.751   27.556    0.371    1.053 
 5814  304.769    4.310    3.276   34.753   27.557    0.348    1.049 
 5820  304.943    4.311    3.276   34.753   27.557    0.371    1.049 
 5829  305.116    4.315    3.276   34.754   27.557    0.348    1.049 
 5832  305.290    4.317    3.277   34.754   27.557    0.348    1.046 
 5833  305.463    4.317    3.277   34.754   27.557    0.348    1.046 
 5835  305.637    4.318    3.277   34.754   27.557    0.348    1.046 
 5837  305.810    4.318    3.277   34.754   27.557    0.348    1.046 
 5838  305.983    4.318    3.277   34.754   27.557    0.371    1.046 
 5840  306.157    4.318    3.277   34.754   27.557    0.371    1.046 
 5841  306.330    4.318    3.277   34.754   27.557    0.371    1.046 
 5843  306.504    4.318    3.277   34.754   27.557    0.348    1.046 
 5844  306.677    4.318    3.277   34.754   27.557    0.348    1.049 
 5845  306.851    4.318    3.277   34.754   27.557    0.371    1.049 
 5847  307.024    4.315    3.277   34.754   27.557    0.371    1.049 
 5849  307.197    4.312    3.277   34.754   27.558    0.371    1.049 
 5850  307.371    4.311    3.276   34.754   27.558    0.394    1.049 
 5851  307.544    4.310    3.276   34.754   27.558    0.394    1.049 
 5853  307.718    4.306    3.276   34.754   27.558    0.394    1.049 
 5855  307.891    4.297    3.276   34.754   27.559    0.394    1.049 
 5857  308.064    4.291    3.275   34.754   27.560    0.348    1.053 
 5858  308.238    4.291    3.275   34.754   27.560    0.371    1.053 
 5861  308.411    4.289    3.275   34.754   27.560    0.348    1.049 
 5863  308.585    4.288    3.275   34.754   27.560    0.348    1.049 
 5866  308.758    4.286    3.274   34.754   27.560    0.371    1.049 
 5869  308.932    4.284    3.274   34.753   27.560    0.348    1.049 
 5872  309.105    4.284    3.274   34.753   27.560    0.348    1.046 
 5876  309.278    4.281    3.274   34.754   27.561    0.348    1.046 
 5880  309.452    4.265    3.273   34.754   27.562    0.348    1.046 
 5882  309.625    4.261    3.272   34.753   27.563    0.348    1.046 
 5884  309.799    4.255    3.271   34.753   27.563    0.348    1.046 
 5885  309.972    4.250    3.271   34.753   27.563    0.348    1.046 
 5887  310.146    4.246    3.271   34.753   27.563    0.324    1.046 
 5888  310.319    4.245    3.270   34.752   27.564    0.348    1.046 
 5889  310.492    4.243    3.270   34.752   27.564    0.348    1.046 
 5891  310.666    4.240    3.270   34.753   27.564    0.348    1.046 
 5892  310.839    4.231    3.270   34.753   27.565    0.348    1.049 
 5893  311.013    4.223    3.269   34.753   27.566    0.348    1.046 
 5894  311.186    4.220    3.268   34.753   27.567    0.348    1.049 
 5895  311.359    4.218    3.268   34.753   27.567    0.348    1.046 
 5896  311.533    4.217    3.268   34.753   27.567    0.371    1.049 
 5897  311.880    4.216    3.268   34.754   27.567    0.371    1.049 
 5899  312.053    4.216    3.268   34.754   27.567    0.371    1.049 
 5900  312.400    4.216    3.268   34.754   27.568    0.371    1.049 
 5902  312.747    4.214    3.268   34.754   27.568    0.371    1.049 
 5903  312.920    4.213    3.268   34.754   27.568    0.394    1.049 
 5904  313.094    4.213    3.268   34.755   27.568    0.394    1.049 
 5905  313.267    4.213    3.268   34.754   27.568    0.394    1.049 
 5906  313.441    4.213    3.268   34.752   27.568    0.394    1.049 
 5907  313.614    4.212    3.268   34.752   27.568    0.394    1.049 
 5908  313.787    4.212    3.268   34.754   27.568    0.394    1.049 
 5910  313.961    4.209    3.268   34.754   27.568    0.394    1.046 
 5911  314.134    4.206    3.267   34.754   27.568    0.394    1.046 
 5913  314.308    4.200    3.267   34.754   27.569    0.394    1.046 
 5915  314.481    4.197    3.266   34.754   27.569    0.371    1.046 
 5916  314.654    4.195    3.266   34.754   27.569    0.371    1.046 
 5919  314.828    4.190    3.266   34.752   27.569    0.371    1.046 
 5923  315.001    4.187    3.265   34.752   27.569    0.371    1.046 
 5927  315.175    4.185    3.265   34.750   27.569    0.324    1.046 
 5931  315.348    4.181    3.265   34.750   27.569    0.348    1.046 
 5935  315.522    4.179    3.265   34.750   27.569    0.371    1.046 
 5937  315.695    4.176    3.264   34.750   27.569    0.371    1.046 
 5939  315.868    4.175    3.264   34.749   27.570    0.348    1.046 
 5941  316.042    4.168    3.264   34.749   27.570    0.348    1.046 
 5943  316.215    4.160    3.263   34.748   27.570    0.348    1.046 
 5945  316.389    4.153    3.262   34.749   27.571    0.324    1.046 
 5946  316.562    4.149    3.262   34.749   27.571    0.324    1.046 
 5947  316.735    4.145    3.262   34.749   27.572    0.324    1.046 
 5949  316.909    4.138    3.261   34.750   27.573    0.348    1.046 
 5950  317.082    4.134    3.261   34.750   27.573    0.348    1.046 
 5951  317.256    4.131    3.260   34.750   27.574    0.348    1.046 
 5953  317.429    4.123    3.259   34.750   27.575    0.348    1.046 
 5954  317.603    4.122    3.259   34.750   27.575    0.324    1.046 
 5955  317.776    4.121    3.259   34.752   27.576    0.324    1.046 
 5956  317.949    4.118    3.259   34.752   27.577    0.324    1.046 
 5957  318.123    4.112    3.259   34.752   27.578    0.324    1.046 
 5959  318.296    4.103    3.258   34.752   27.578    0.301    1.046 
 5961  318.643    4.101    3.258   34.752   27.579    0.324    1.046 
 5963  318.816    4.100    3.258   34.752   27.579    0.324    1.046 
 5965  318.990    4.100    3.258   34.752   27.579    0.324    1.049 
 5967  319.163    4.100    3.258   34.752   27.579    0.348    1.049 
 5970  319.337    4.100    3.258   34.752   27.579    0.348    1.049 
 5975  319.510    4.100    3.258   34.752   27.579    0.348    1.046 
 5981  319.683    4.100    3.258   34.752   27.579    0.371    1.046 
 5985  319.857    4.100    3.258   34.752   27.579    0.348    1.042 
 5988  320.030    4.100    3.258   34.752   27.579    0.348    1.042 
 5990  320.204    4.098    3.258   34.752   27.579    0.348    1.042 
 5992  320.377    4.098    3.258   34.752   27.579    0.348    1.042 
 5994  320.551    4.097    3.257   34.752   27.579    0.348    1.046 
 5995  320.724    4.096    3.257   34.752   27.579    0.348    1.046 
 5996  320.897    4.094    3.257   34.751   27.579    0.348    1.046 
 5997  321.071    4.090    3.257   34.750   27.579    0.348    1.046 
 5999  321.244    4.087    3.257   34.748   27.579    0.348    1.046 
 6000  321.591    4.086    3.256   34.747   27.579    0.348    1.046 
 6002  321.764    4.081    3.256   34.746   27.579    0.348    1.042 
 6003  321.938    4.076    3.256   34.746   27.579    0.348    1.042 
 6004  322.111    4.072    3.255   34.746   27.579    0.348    1.042 
 6005  322.285    4.070    3.255   34.746   27.579    0.348    1.042 
 6006  322.458    4.066    3.255   34.746   27.579    0.371    1.042 
 6007  322.805    4.060    3.254   34.746   27.579    0.348    1.042 
 6009  322.978    4.049    3.253   34.746   27.579    0.371    1.042 
 6010  323.325    4.048    3.253   34.746   27.579    0.348    1.042 
 6011  323.499    4.048    3.253   34.746   27.579    0.348    1.042 
 6012  323.672    4.048    3.253   34.746   27.579    0.371    1.042 
 6013  323.845    4.048    3.253   34.746   27.579    0.371    1.042 
 6014  324.019    4.048    3.253   34.746   27.579    0.371    1.042 
 6015  324.192    4.048    3.253   34.746   27.579    0.371    1.042 
 6017  324.366    4.048    3.253   34.746   27.579    0.394    1.038 
 6018  324.539    4.048    3.253   34.746   27.579    0.394    1.038 
 6019  324.712    4.048    3.253   34.746   27.579    0.394    1.038 
 6020  324.886    4.048    3.253   34.746   27.579    0.394    1.038 
 6023  325.059    4.048    3.253   34.746   27.579    0.371    1.038 
 6024  325.233    4.048    3.253   34.746   27.579    0.371    1.038 
 6029  325.406    4.048    3.253   34.746   27.579    0.371    1.038 
 6047  325.579    4.048    3.253   34.746   27.579    0.348    1.038 
 6049  325.753    4.047    3.253   34.746   27.579    0.348    1.038 
 6051  325.926    4.046    3.253   34.747   27.580    0.348    1.038 
 6052  326.100    4.046    3.253   34.747   27.580    0.348    1.038 
 6054  326.447    4.045    3.253   34.747   27.580    0.348    1.038 
 6056  326.793    4.045    3.253   34.747   27.580    0.348    1.038 
 6058  327.140    4.042    3.253   34.747   27.581    0.348    1.038 
 6059  327.314    4.042    3.253   34.748   27.581    0.348    1.038 
 6060  327.487    4.042    3.253   34.748   27.581    0.348    1.038 
 6061  327.660    4.041    3.253   34.750   27.583    0.348    1.038 
 6062  328.007    4.040    3.253   34.750   27.583    0.348    1.038 
 6063  328.181    4.040    3.253   34.750   27.583    0.348    1.038 
 6064  328.354    4.039    3.253   34.750   27.583    0.348    1.038 
 6065  328.527    4.039    3.253   34.750   27.584    0.348    1.038 
 6066  328.874    4.039    3.252   34.750   27.584    0.348    1.038 
 6067  329.048    4.037    3.252   34.751   27.584    0.348    1.038 
 6068  329.221    4.034    3.252   34.751   27.585    0.348    1.038 
 6070  329.394    4.030    3.252   34.752   27.586    0.348    1.038 
 6071  329.568    4.026    3.252   34.752   27.586    0.348    1.038 
 6072  329.741    4.022    3.252   34.753   27.587    0.348    1.038 
 6073  329.915    4.021    3.251   34.753   27.587    0.348    1.038 
 6076  330.088    4.021    3.251   34.753   27.588    0.348    1.038 
 6078  330.261    4.021    3.251   34.753   27.588    0.348    1.038 
 6091  330.435    4.025    3.252   34.753   27.588    0.348    1.034 
 6095  330.608    4.025    3.252   34.753   27.588    0.371    1.034 
 6097  330.782    4.025    3.252   34.754   27.588    0.348    1.034 
 6099  330.955    4.025    3.252   34.754   27.588    0.371    1.034 
 6101  331.128    4.025    3.252   34.754   27.588    0.371    1.034 
 6103  331.302    4.025    3.252   34.754   27.588    0.371    1.034 
 6104  331.475    4.025    3.252   34.755   27.588    0.371    1.034 
 6105  331.649    4.025    3.252   34.755   27.588    0.371    1.034 
 6106  331.822    4.026    3.252   34.755   27.588    0.348    1.034 
 6108  331.996    4.028    3.252   34.755   27.588    0.324    1.034 
 6109  332.169    4.030    3.252   34.755   27.588    0.324    1.034 
 6111  332.516    4.030    3.252   34.755   27.588    0.348    1.034 
 6113  332.689    4.030    3.253   34.758   27.591    0.348    1.034 
 6114  332.863    4.030    3.253   34.758   27.591    0.348    1.034 
 6116  333.036    4.030    3.253   34.758   27.591    0.348    1.034 
 6117  333.209    4.030    3.253   34.758   27.591    0.348    1.034 
 6119  333.383    4.030    3.253   34.758   27.591    0.348    1.034 
 6121  333.556    4.030    3.253   34.758   27.591    0.348    1.034 
 6122  333.730    4.030    3.253   34.758   27.591    0.348    1.034 
 6124  333.903    4.030    3.253   34.758   27.591    0.371    1.034 
 6127  334.076    4.031    3.253   34.758   27.591    0.348    1.034 
 6129  334.250    4.031    3.253   34.758   27.591    0.371    1.034 
 6132  334.423    4.031    3.253   34.758   27.591    0.371    1.034 
 6135  334.597    4.031    3.253   34.758   27.591    0.371    1.034 
 6138  334.770    4.032    3.253   34.757   27.590    0.371    1.034 
 6140  334.943    4.032    3.253   34.757   27.590    0.371    1.034 
 6142  335.117    4.032    3.253   34.757   27.590    0.348    1.034 
 6144  335.290    4.032    3.253   34.757   27.589    0.348    1.034 
 6146  335.464    4.032    3.253   34.757   27.589    0.371    1.034 
 6148  335.637    4.033    3.253   34.757   27.589    0.371    1.034 
 6149  335.810    4.033    3.253   34.757   27.589    0.371    1.034 
 6150  335.984    4.033    3.253   34.757   27.589    0.371    1.034 
 6152  336.157    4.034    3.253   34.757   27.589    0.371    1.034 
 6153  336.331    4.037    3.253   34.757   27.589    0.371    1.034 
 6156  336.504    4.042    3.254   34.756   27.587    0.371    1.034 
 6158  336.677    4.047    3.254   34.756   27.587    0.348    1.034 
 6159  336.851    4.055    3.255   34.756   27.587    0.348    1.034 
 6161  337.024    4.067    3.256   34.756   27.586    0.371    1.034 
 6162  337.198    4.068    3.256   34.756   27.586    0.371    1.030 
 6164  337.371    4.073    3.257   34.756   27.586    0.371    1.034 
 6166  337.544    4.073    3.257   34.757   27.586    0.371    1.030 
 6168  337.718    4.093    3.258   34.760   27.586    0.371    1.030 
 6170  337.891    4.126    3.262   34.760   27.586    0.371    1.030 
 6172  338.065    4.129    3.263   34.763   27.586    0.324    1.034 
 6174  338.238    4.144    3.263   34.766   27.586    0.324    1.034 
 6176  338.411    4.153    3.265   34.769   27.586    0.301    1.034 
 6179  338.585    4.178    3.267   34.771   27.586    0.301    1.034 
 6181  338.758    4.184    3.268   34.772   27.587    0.324    1.034 
 6182  338.932    4.192    3.269   34.775   27.587    0.301    1.034 
 6184  339.105    4.198    3.270   34.778   27.589    0.324    1.034 
 6185  339.278    4.198    3.270   34.778   27.589    0.324    1.034 
 6187  339.452    4.200    3.270   34.778   27.589    0.348    1.034 
 6188  339.625    4.200    3.270   34.778   27.589    0.324    1.034 
 6189  339.799    4.200    3.270   34.780   27.590    0.324    1.034 
 6191  339.972    4.205    3.271   34.781   27.591    0.324    1.034 
 6192  340.145    4.205    3.271   34.783   27.592    0.324    1.034 
 6193  340.319    4.205    3.271   34.783   27.592    0.348    1.034 
 6195  340.492    4.205    3.271   34.784   27.592    0.348    1.034 
 6196  340.666    4.205    3.271   34.784   27.593    0.348    1.034 
 6197  340.839    4.205    3.271   34.784   27.593    0.348    1.034 
 6198  341.012    4.206    3.271   34.784   27.593    0.348    1.034 
 6199  341.186    4.211    3.271   34.784   27.593    0.348    1.034 
 6200  341.359    4.217    3.272   34.784   27.593    0.348    1.034 
 6201  341.533    4.221    3.273   34.788   27.594    0.348    1.034 
 6202  341.706    4.222    3.273   34.788   27.594    0.348    1.034 
 6203  341.879    4.223    3.273   34.789   27.594    0.348    1.034 
 6205  342.053    4.229    3.274   34.790   27.594    0.348    1.034 
 6207  342.226    4.234    3.274   34.791   27.594    0.348    1.030 
 6209  342.400    4.253    3.276   34.791   27.594    0.348    1.030 
 6210  342.573    4.253    3.276   34.791   27.594    0.348    1.030 
 6213  342.746    4.253    3.276   34.791   27.594    0.371    1.030 
 6217  342.920    4.253    3.276   34.792   27.594    0.324    1.030 
 6222  343.093    4.253    3.276   34.793   27.595    0.324    1.030 
 6228  343.267    4.269    3.278   34.793   27.595    0.324    1.026 
 6230  343.440    4.272    3.278   34.793   27.595    0.324    1.030 
 6235  343.613    4.273    3.278   34.795   27.595    0.324    1.030 
 6236  343.787    4.273    3.278   34.798   27.597    0.324    1.030 
 6240  343.960    4.275    3.279   34.799   27.597    0.348    1.030 
 6241  344.133    4.275    3.279   34.799   27.597    0.348    1.030 
 6242  344.307    4.275    3.279   34.799   27.597    0.348    1.030 
 6245  344.480    4.278    3.279   34.799   27.597    0.348    1.030 
 6246  344.654    4.278    3.279   34.799   27.597    0.348    1.030 
 6248  344.827    4.278    3.279   34.799   27.597    0.348    1.030 
 6249  345.000    4.278    3.279   34.799   27.597    0.348    1.030 
 6250  345.174    4.278    3.279   34.799   27.597    0.348    1.030 
 6252  345.521    4.278    3.279   34.799   27.597    0.348    1.030 
 6254  345.694    4.278    3.279   34.803   27.600    0.371    1.030 
 6255  345.867    4.278    3.279   34.803   27.600    0.348    1.026 
 6256  346.041    4.278    3.279   34.803   27.600    0.348    1.030 
 6257  346.214    4.274    3.279   34.803   27.600    0.348    1.030 
 6258  346.388    4.262    3.278   34.804   27.602    0.371    1.030 
 6260  346.561    4.260    3.278   34.805   27.603    0.371    1.030 
 6261  346.734    4.259    3.278   34.805   27.603    0.371    1.026 
 6263  347.081    4.259    3.278   34.805   27.603    0.348    1.026 
 6265  347.255    4.259    3.278   34.805   27.603    0.371    1.026 
 6267  347.428    4.259    3.278   34.805   27.603    0.371    1.026 
 6269  347.601    4.259    3.278   34.805   27.603    0.371    1.026 
 6272  347.775    4.259    3.278   34.805   27.603    0.371    1.026 
 6273  347.948    4.260    3.278   34.805   27.603    0.371    1.026 
 6276  348.122    4.260    3.278   34.805   27.603    0.371    1.026 
 6281  348.295    4.260    3.278   34.805   27.603    0.348    1.026 
 6283  348.468    4.260    3.278   34.805   27.603    0.348    1.026 
 6287  348.642    4.261    3.278   34.805   27.603    0.348    1.026 
 6289  348.815    4.263    3.278   34.805   27.603    0.348    1.026 
 6290  348.988    4.264    3.279   34.805   27.603    0.348    1.026 
 6292  349.162    4.267    3.279   34.805   27.603    0.324    1.026 
 6294  349.335    4.270    3.279   34.805   27.603    0.324    1.026 
 6297  349.509    4.271    3.279   34.805   27.603    0.348    1.026 
 6298  349.682    4.271    3.279   34.805   27.603    0.348    1.026 
 6299  349.855    4.271    3.279   34.805   27.603    0.371    1.026 
 6301  350.029    4.271    3.279   34.805   27.603    0.348    1.026 
 6302  350.202    4.271    3.279   34.805   27.603    0.324    1.026 
 6304  350.376    4.271    3.279   34.805   27.603    0.348    1.026 
 6305  350.549    4.270    3.279   34.805   27.603    0.371    1.026 
 6307  350.722    4.270    3.279   34.805   27.603    0.324    1.026 
 6309  350.896    4.270    3.279   34.805   27.603    0.324    1.026 
 6311  351.243    4.270    3.279   34.805   27.603    0.324    1.026 
 6313  351.416    4.269    3.279   34.805   27.603    0.371    1.026 
 6315  351.589    4.268    3.279   34.806   27.604    0.371    1.026 
 6317  351.763    4.267    3.279   34.807   27.605    0.371    1.026 
 6320  351.936    4.266    3.279   34.808   27.605    0.371    1.026 
 6321  352.110    4.266    3.279   34.808   27.605    0.371    1.026 
 6323  352.283    4.266    3.279   34.808   27.605    0.371    1.026 
 6326  352.456    4.266    3.279   34.808   27.605    0.371    1.026 
 6327  352.630    4.265    3.279   34.808   27.606    0.371    1.026 
 6330  352.803    4.265    3.279   34.808   27.606    0.371    1.026 
 6331  352.976    4.265    3.279   34.808   27.606    0.371    1.026 
 6333  353.150    4.265    3.279   34.808   27.606    0.371    1.026 
 6335  353.323    4.265    3.279   34.808   27.606    0.371    1.026 
 6337  353.497    4.265    3.279   34.809   27.606    0.371    1.026 
 6339  353.670    4.265    3.279   34.809   27.606    0.371    1.026 
 6340  353.843    4.265    3.279   34.809   27.606    0.371    1.026 
 6342  354.017    4.265    3.279   34.809   27.606    0.371    1.026 
 6344  354.190    4.264    3.279   34.809   27.606    0.371    1.026 
 6345  354.364    4.264    3.279   34.809   27.606    0.371    1.026 
 6346  354.537    4.263    3.279   34.809   27.606    0.371    1.023 
 6348  354.710    4.259    3.279   34.809   27.607    0.348    1.023 
 6349  354.884    4.255    3.279   34.809   27.607    0.348    1.023 
 6351  355.057    4.249    3.278   34.809   27.608    0.348    1.023 
 6352  355.230    4.246    3.278   34.810   27.609    0.371    1.023 
 6354  355.404    4.240    3.277   34.810   27.609    0.371    1.023 
 6356  355.577    4.238    3.277   34.811   27.609    0.348    1.023 
 6359  355.751    4.234    3.276   34.812   27.609    0.348    1.023 
 6361  355.924    4.234    3.276   34.812   27.609    0.324    1.023 
 6375  356.097    4.228    3.276   34.812   27.609    0.371    1.023 
 6379  356.271    4.226    3.276   34.812   27.609    0.371    1.023 
 6381  356.444    4.225    3.276   34.812   27.609    0.371    1.023 
 6383  356.618    4.222    3.275   34.811   27.609    0.371    1.023 
 6384  356.791    4.220    3.275   34.810   27.609    0.394    1.023 
 6386  356.964    4.214    3.275   34.807   27.609    0.394    1.023 
 6387  357.138    4.213    3.275   34.805   27.609    0.394    1.023 
 6388  357.311    4.213    3.275   34.805   27.609    0.394    1.023 
 6389  357.658    4.213    3.275   34.805   27.609    0.394    1.023 
 6390  357.831    4.213    3.274   34.805   27.609    0.394    1.023 
 6391  358.005    4.213    3.274   34.805   27.609    0.394    1.023 
 6392  358.178    4.212    3.274   34.805   27.609    0.371    1.023 
 6393  358.351    4.212    3.274   34.805   27.609    0.394    1.023 
 6394  358.525    4.211    3.274   34.805   27.609    0.394    1.023 
 6395  358.698    4.211    3.274   34.805   27.609    0.394    1.023 
 6396  359.045    4.210    3.274   34.805   27.609    0.371    1.023 
 6397  359.218    4.209    3.274   34.805   27.609    0.371    1.023 
 6398  359.392    4.209    3.274   34.805   27.609    0.371    1.023 
 6399  359.565    4.209    3.274   34.805   27.609    0.371    1.023 
 6400  359.738    4.209    3.274   34.805   27.609    0.371    1.023 
 6401  359.912    4.208    3.274   34.805   27.609    0.371    1.023 
 6402  360.085    4.204    3.274   34.805   27.610    0.371    1.023 
 6404  360.259    4.193    3.273   34.806   27.612    0.371    1.023 
 6405  360.432    4.190    3.273   34.806   27.612    0.371    1.023 
 6407  360.605    4.186    3.272   34.806   27.613    0.371    1.023 
 6409  360.779    4.186    3.272   34.806   27.613    0.371    1.023 
 6419  360.952    4.183    3.272   34.806   27.613    0.348    1.023 
 6431  361.126    4.174    3.271   34.806   27.614    0.348    1.019 
 6435  361.299    4.173    3.271   34.806   27.614    0.324    1.019 
 6437  361.472    4.173    3.271   34.807   27.614    0.324    1.019 
 6439  361.646    4.173    3.271   34.807   27.614    0.324    1.019 
 6441  361.819    4.173    3.271   34.807   27.614    0.348    1.019 
 6443  361.992    4.173    3.271   34.807   27.614    0.348    1.019 
 6444  362.166    4.173    3.271   34.807   27.614    0.348    1.019 
 6445  362.339    4.173    3.271   34.807   27.614    0.348    1.019 
 6447  362.513    4.174    3.271   34.807   27.614    0.348    1.019 
 6448  362.686    4.174    3.271   34.807   27.614    0.348    1.019 
 6449  362.859    4.179    3.271   34.807   27.614    0.348    1.019 
 6451  363.033    4.188    3.273   34.807   27.614    0.301    1.019 
 6452  363.206    4.191    3.273   34.807   27.614    0.301    1.019 
 6453  363.379    4.193    3.273   34.807   27.614    0.324    1.019 
 6455  363.726    4.194    3.273   34.807   27.614    0.324    1.019 
 6457  363.900    4.202    3.274   34.808   27.614    0.324    1.019 
 6458  364.073    4.219    3.275   34.808   27.614    0.348    1.015 
 6459  364.246    4.226    3.276   34.810   27.614    0.324    1.015 
 6460  364.420    4.226    3.277   34.811   27.614    0.348    1.015 
 6461  364.593    4.231    3.277   34.814   27.614    0.348    1.015 
 6463  364.767    4.238    3.278   34.815   27.614    0.348    1.015 
 6464  364.940    4.250    3.278   34.817   27.614    0.348    1.015 
 6465  365.113    4.298    3.282   34.819   27.614    0.324    1.015 
 6466  365.287    4.318    3.285   34.820   27.614    0.301    1.015 
 6468  365.460    4.320    3.286   34.826   27.614    0.324    1.019 
 6469  365.633    4.320    3.286   34.826   27.614    0.348    1.019 
 6471  365.807    4.320    3.286   34.826   27.614    0.324    1.015 
 6472  365.980    4.320    3.286   34.826   27.614    0.324    1.015 
 6476  366.154    4.321    3.287   34.835   27.621    0.324    1.015 
 6477  366.327    4.321    3.287   34.835   27.621    0.324    1.015 
 6479  366.500    4.321    3.287   34.836   27.621    0.324    1.015 
 6482  366.674    4.321    3.287   34.836   27.621    0.324    1.015 
 6484  366.847    4.321    3.287   34.836   27.621    0.324    1.019 
 6486  367.020    4.321    3.287   34.836   27.621    0.348    1.015 
 6488  367.194    4.321    3.287   34.836   27.621    0.324    1.015 
 6491  367.367    4.321    3.287   34.836   27.621    0.348    1.015 
 6493  367.541    4.322    3.287   34.836   27.621    0.348    1.019 
 6496  367.714    4.322    3.287   34.836   27.621    0.371    1.019 
 6498  367.887    4.321    3.287   34.836   27.621    0.371    1.019 
 6500  368.061    4.321    3.287   34.836   27.622    0.371    1.019 
 6501  368.234    4.321    3.287   34.836   27.622    0.371    1.019 
 6503  368.407    4.321    3.287   34.836   27.622    0.348    1.019 
 6505  368.581    4.321    3.287   34.836   27.622    0.371    1.019 
 6506  368.754    4.320    3.287   34.835   27.622    0.371    1.019 
 6509  368.928    4.313    3.286   34.835   27.622    0.371    1.019 
 6510  369.101    4.312    3.286   34.835   27.622    0.348    1.019 
 6511  369.274    4.312    3.286   34.835   27.622    0.348    1.019 
 6514  369.448    4.305    3.286   34.835   27.622    0.348    1.019 
 6515  369.621    4.303    3.285   34.834   27.622    0.348    1.015 
 6517  369.794    4.302    3.285   34.833   27.622    0.324    1.015 
 6518  369.968    4.302    3.285   34.833   27.622    0.324    1.015 
 6520  370.141    4.301    3.285   34.833   27.622    0.324    1.015 
 6521  370.315    4.300    3.285   34.833   27.622    0.324    1.015 
 6523  370.488    4.299    3.285   34.833   27.622    0.324    1.015 
 6525  370.661    4.296    3.285   34.833   27.622    0.324    1.015 
 6527  370.835    4.294    3.285   34.833   27.623    0.324    1.015 
 6529  371.008    4.293    3.285   34.833   27.623    0.324    1.015 
 6532  371.181    4.292    3.284   34.833   27.623    0.324    1.015 
 6534  371.355    4.291    3.284   34.833   27.623    0.324    1.015 
 6538  371.528    4.289    3.284   34.834   27.623    0.301    1.015 
 6541  371.702    4.287    3.284   34.834   27.624    0.301    1.015 
 6544  371.875    4.284    3.284   34.834   27.624    0.324    1.015 
 6546  372.048    4.284    3.284   34.836   27.624    0.324    1.015 
 6548  372.222    4.283    3.284   34.836   27.624    0.324    1.015 
 6550  372.395    4.282    3.284   34.836   27.624    0.324    1.015 
 6552  372.568    4.279    3.283   34.836   27.624    0.324    1.015 
 6553  372.742    4.277    3.283   34.834   27.624    0.324    1.015 
 6554  372.915    4.277    3.283   34.834   27.625    0.324    1.015 
 6556  373.089    4.276    3.283   34.834   27.625    0.324    1.015 
 6557  373.262    4.274    3.283   34.834   27.625    0.324    1.015 
 6558  373.435    4.273    3.283   34.834   27.625    0.324    1.015 
 6559  373.609    4.273    3.283   34.833   27.625    0.324    1.015 
 6560  373.782    4.272    3.283   34.833   27.625    0.348    1.015 
 6561  373.955    4.272    3.283   34.831   27.625    0.348    1.015 
 6562  374.129    4.269    3.282   34.831   27.625    0.348    1.015 
 6563  374.302    4.268    3.282   34.831   27.625    0.348    1.015 
 6565  374.649    4.255    3.281   34.831   27.625    0.348    1.015 
 6567  374.822    4.255    3.281   34.831   27.625    0.348    1.015 
 6568  374.996    4.255    3.281   34.831   27.625    0.348    1.015 
 6569  375.169    4.255    3.281   34.831   27.625    0.348    1.015 
 6571  375.342    4.255    3.281   34.831   27.625    0.348    1.015 
 6572  375.516    4.255    3.281   34.831   27.625    0.348    1.015 
 6575  375.689    4.255    3.281   34.831   27.625    0.324    1.015 
 6577  375.863    4.255    3.281   34.831   27.625    0.324    1.015 
 6590  376.036    4.255    3.281   34.831   27.625    0.324    1.015 
 6597  376.209    4.252    3.281   34.831   27.625    0.324    1.015 
 6598  376.383    4.252    3.281   34.831   27.625    0.324    1.015 
 6600  376.556    4.250    3.281   34.831   27.625    0.348    1.011 
 6601  376.729    4.250    3.281   34.831   27.625    0.348    1.011 
 6603  377.076    4.237    3.280   34.831   27.626    0.348    1.011 
 6605  377.249    4.232    3.279   34.831   27.626    0.348    1.011 
 6606  377.423    4.232    3.279   34.831   27.626    0.348    1.015 
 6607  377.596    4.232    3.279   34.831   27.626    0.348    1.015 
 6608  377.770    4.232    3.279   34.831   27.627    0.348    1.015 
 6609  377.943    4.232    3.279   34.831   27.627    0.348    1.015 
 6610  378.116    4.232    3.279   34.831   27.627    0.348    1.015 
 6611  378.463    4.232    3.279   34.830   27.627    0.348    1.015 
 6612  378.636    4.232    3.279   34.830   27.627    0.348    1.015 
 6613  378.810    4.232    3.279   34.830   27.627    0.348    1.011 
 6615  379.157    4.234    3.280   34.830   27.627    0.348    1.011 
 6617  379.503    4.235    3.280   34.830   27.627    0.348    1.011 
 6619  379.677    4.236    3.280   34.830   27.627    0.348    1.011 
 6620  379.850    4.241    3.280   34.830   27.627    0.348    1.011 
 6622  380.023    4.242    3.280   34.832   27.627    0.348    1.011 
 6624  380.197    4.242    3.280   34.835   27.628    0.348    1.011 
 6625  380.370    4.242    3.280   34.835   27.628    0.348    1.011 
 6638  380.543    4.242    3.280   34.835   27.628    0.348    1.011 
 6644  380.717    4.243    3.281   34.835   27.628    0.371    1.011 
 6646  380.890    4.244    3.281   34.835   27.628    0.371    1.011 
 6648  381.064    4.244    3.281   34.835   27.628    0.371    1.011 
 6650  381.237    4.246    3.281   34.835   27.628    0.371    1.008 
 6652  381.410    4.247    3.281   34.835   27.628    0.371    1.011 
 6653  381.584    4.247    3.281   34.835   27.628    0.371    1.008 
 6654  381.757    4.248    3.281   34.835   27.628    0.371    1.011 
 6655  381.930    4.248    3.281   34.835   27.628    0.371    1.008 
 6656  382.104    4.248    3.281   34.835   27.628    0.371    1.008 
 6657  382.277    4.248    3.281   34.835   27.628    0.371    1.008 
 6658  382.451    4.248    3.281   34.835   27.628    0.371    1.011 
 6659  382.624    4.248    3.281   34.834   27.628    0.371    1.011 
 6660  382.797    4.248    3.281   34.834   27.628    0.371    1.011 
 6661  382.971    4.248    3.281   34.834   27.628    0.371    1.011 
 6663  383.317    4.248    3.281   34.834   27.628    0.371    1.008 
 6664  383.491    4.248    3.281   34.834   27.628    0.371    1.008 
 6665  383.664    4.248    3.281   34.834   27.628    0.371    1.008 
 6666  383.837    4.248    3.281   34.834   27.628    0.348    1.008 
 6668  384.011    4.248    3.281   34.834   27.628    0.348    1.008 
 6670  384.184    4.248    3.281   34.834   27.628    0.348    1.008 
 6672  384.358    4.248    3.281   34.834   27.628    0.348    1.008 
 6674  384.531    4.248    3.281   34.834   27.628    0.348    1.008 
 6678  384.704    4.248    3.281   34.834   27.628    0.348    1.008 
 6686  384.878    4.248    3.281   34.834   27.628    0.348    1.008 
 6690  385.051    4.248    3.281   34.834   27.628    0.348    1.008 
 6694  385.224    4.248    3.281   34.834   27.628    0.348    1.008 
 6696  385.398    4.248    3.281   34.834   27.628    0.348    1.008 
 6698  385.571    4.248    3.281   34.834   27.628    0.348    1.008 
 6700  385.744    4.248    3.281   34.834   27.628    0.348    1.008 
 6702  386.091    4.248    3.282   34.842   27.635    0.348    1.008 
 6704  386.265    4.248    3.282   34.842   27.635    0.348    1.008 
 6706  386.438    4.248    3.282   34.842   27.635    0.348    1.008 
 6707  386.785    4.248    3.282   34.844   27.635    0.348    1.008 
 6709  386.958    4.248    3.282   34.844   27.635    0.348    1.008 
 6711  387.131    4.248    3.282   34.844   27.635    0.371    1.008 
 6712  387.305    4.248    3.282   34.844   27.635    0.371    1.008 
 6713  387.478    4.248    3.282   34.844   27.635    0.371    1.008 
 6715  387.651    4.248    3.282   34.844   27.636    0.371    1.008 
 6716  387.825    4.249    3.282   34.844   27.636    0.371    1.008 
 6717  387.998    4.249    3.282   34.844   27.636    0.371    1.008 
 6718  388.172    4.252    3.282   34.844   27.636    0.371    1.008 
 6720  388.345    4.255    3.283   34.844   27.636    0.371    1.008 
 6723  388.518    4.255    3.283   34.844   27.636    0.371    1.008 
 6724  388.692    4.255    3.283   34.844   27.636    0.371    1.008 
 6727  388.865    4.255    3.283   34.844   27.636    0.371    1.004 
 6730  389.038    4.255    3.283   34.844   27.636    0.371    1.004 
 6732  389.212    4.253    3.283   34.845   27.636    0.324    1.004 
 6734  389.385    4.253    3.283   34.847   27.636    0.371    1.004 
 6736  389.558    4.253    3.283   34.847   27.636    0.371    1.004 
 6738  389.732    4.253    3.283   34.847   27.636    0.371    1.004 
 6740  389.905    4.253    3.283   34.847   27.636    0.371    1.004 
 6742  390.078    4.252    3.282   34.847   27.636    0.371    1.004 
 6743  390.252    4.251    3.282   34.847   27.636    0.371    1.004 
 6744  390.425    4.251    3.282   34.847   27.636    0.371    1.004 
 6746  390.772    4.249    3.282   34.847   27.636    0.371    1.004 
 6749  390.945    4.247    3.282   34.847   27.636    0.371    1.004 
 6750  391.119    4.245    3.282   34.845   27.636    0.371    1.004 
 6751  391.292    4.243    3.282   34.843   27.636    0.371    1.004 
 6752  391.465    4.243    3.282   34.841   27.635    0.371    1.004 
 6753  391.639    4.243    3.282   34.841   27.635    0.371    1.004 
 6755  391.812    4.241    3.282   34.841   27.635    0.371    1.008 
 6756  391.985    4.240    3.282   34.841   27.635    0.371    1.008 
 6757  392.159    4.240    3.281   34.841   27.635    0.371    1.008 
 6758  392.332    4.239    3.281   34.841   27.635    0.371    1.008 
 6760  392.505    4.238    3.281   34.841   27.635    0.348    1.008 
 6761  392.679    4.238    3.281   34.841   27.635    0.348    1.008 
 6763  392.852    4.237    3.281   34.841   27.635    0.324    1.008 
 6764  393.026    4.237    3.281   34.841   27.635    0.324    1.008 
 6765  393.199    4.237    3.281   34.841   27.635    0.324    1.008 
 6768  393.372    4.237    3.281   34.841   27.635    0.324    1.008 
 6791  393.546    4.236    3.281   34.841   27.635    0.348    1.004 
 6793  393.719    4.236    3.281   34.841   27.635    0.348    1.004 
 6795  393.892    4.236    3.281   34.841   27.635    0.348    1.004 
 6797  394.066    4.235    3.281   34.841   27.635    0.348    1.004 
 6798  394.239    4.235    3.281   34.842   27.636    0.348    1.004 
 6799  394.412    4.235    3.281   34.842   27.636    0.348    1.004 
 6800  394.586    4.235    3.281   34.842   27.636    0.348    1.004 
 6801  394.759    4.233    3.281   34.842   27.636    0.348    1.004 
 6802  394.932    4.230    3.281   34.842   27.636    0.348    1.004 
 6803  395.106    4.228    3.281   34.842   27.636    0.348    1.004 
 6804  395.279    4.227    3.280   34.842   27.637    0.324    1.004 
 6805  395.453    4.222    3.280   34.843   27.638    0.348    1.004 
 6806  395.626    4.219    3.280   34.844   27.639    0.371    1.004 
 6807  395.799    4.215    3.280   34.845   27.640    0.371    1.004 
 6808  395.973    4.212    3.279   34.846   27.641    0.371    1.004 
 6809  396.319    4.208    3.279   34.846   27.642    0.371    1.004 
 6810  396.493    4.201    3.278   34.847   27.643    0.348    1.004 
 6811  396.666    4.196    3.278   34.847   27.644    0.348    1.004 
 6812  396.839    4.191    3.277   34.848   27.645    0.348    1.008 
 6813  397.013    4.186    3.277   34.848   27.646    0.348    1.004 
 6814  397.186    4.183    3.277   34.848   27.646    0.348    1.004 
 6815  397.359    4.182    3.277   34.848   27.646    0.324    1.004 
 6816  397.533    4.182    3.277   34.848   27.646    0.348    1.004 
 6817  397.706    4.182    3.277   34.848   27.646    0.348    1.004 
 6818  397.880    4.182    3.277   34.847   27.646    0.324    1.004 
 6819  398.053    4.182    3.277   34.847   27.646    0.348    1.004 
 6821  398.226    4.182    3.277   34.847   27.646    0.348    1.004 
 6822  398.400    4.182    3.277   34.847   27.646    0.348    1.004 
 6824  398.573    4.182    3.277   34.847   27.646    0.348    1.004 
 6826  398.746    4.182    3.277   34.847   27.646    0.348    1.004 
 6831  398.920    4.183    3.277   34.847   27.646    0.348    1.004 
 6843  399.093    4.184    3.277   34.846   27.644    0.324    1.000 
 6846  399.266    4.184    3.277   34.846   27.644    0.324    1.000 
 6849  399.440    4.184    3.277   34.846   27.644    0.324    1.000 
 6852  399.613    4.184    3.277   34.846   27.644    0.324    1.000 
 6854  399.786    4.184    3.277   34.846   27.644    0.348    1.000 
 6856  399.960    4.184    3.277   34.846   27.644    0.348    1.000 
 6858  400.133    4.185    3.277   34.846   27.644    0.348    1.000 
 6861  400.306    4.185    3.277   34.846   27.644    0.348    1.000 
 6862  400.480    4.186    3.277   34.846   27.644    0.324    1.000 
 6863  400.653    4.186    3.277   34.846   27.644    0.324    1.000 
 6866  400.827    4.187    3.277   34.846   27.644    0.324    1.000 
 6868  401.000    4.188    3.277   34.846   27.644    0.324    1.000 
 6870  401.173    4.189    3.277   34.846   27.644    0.324    1.000 
 6871  401.347    4.189    3.277   34.846   27.644    0.324    1.000 
 6873  401.520    4.190    3.277   34.846   27.644    0.324    1.000 
 6874  401.693    4.190    3.278   34.847   27.645    0.324    1.000 
 6876  401.867    4.191    3.278   34.847   27.645    0.324    1.000 
 6877  402.040    4.191    3.278   34.847   27.645    0.324    1.000 
 6879  402.213    4.192    3.278   34.847   27.645    0.324    1.000 
 6880  402.387    4.192    3.278   34.847   27.645    0.324    1.000 
 6882  402.560    4.192    3.278   34.848   27.645    0.324    1.000 
 6884  402.733    4.192    3.278   34.848   27.645    0.348    1.000 
 6886  402.907    4.192    3.278   34.848   27.645    0.348    1.000 
 6887  403.080    4.192    3.278   34.848   27.645    0.348    1.000 
 6889  403.253    4.192    3.278   34.848   27.645    0.348    1.000 
 6891  403.427    4.192    3.278   34.848   27.645    0.348    1.000 
 6893  403.600    4.192    3.278   34.848   27.645    0.348    1.000 
 6896  403.773    4.189    3.278   34.848   27.645    0.348    1.000 
 6898  403.947    4.189    3.278   34.848   27.645    0.348    1.000 
 6901  404.294    4.189    3.278   34.850   27.646    0.348    1.000 
 6906  404.467    4.189    3.278   34.850   27.646    0.324    1.000 
 6907  404.640    4.189    3.278   34.850   27.647    0.348    0.996 
 6909  404.814    4.189    3.278   34.850   27.647    0.348    1.000 
 6911  404.987    4.193    3.278   34.850   27.647    0.348    0.996 
 6913  405.334    4.194    3.278   34.850   27.647    0.324    1.000 
 6915  405.507    4.197    3.279   34.851   27.647    0.301    0.996 
 6916  405.680    4.197    3.279   34.851   27.647    0.324    0.996 
 6918  405.854    4.197    3.279   34.851   27.647    0.301    0.996 
 6919  406.027    4.198    3.279   34.851   27.647    0.301    0.996 
 6920  406.200    4.198    3.279   34.851   27.647    0.301    1.000 
 6922  406.374    4.198    3.279   34.851   27.647    0.301    0.996 
 6923  406.547    4.198    3.279   34.851   27.647    0.301    0.996 
 6924  406.720    4.198    3.279   34.851   27.647    0.301    0.996 
 6925  406.894    4.198    3.279   34.851   27.647    0.324    0.996 
 6927  407.067    4.198    3.279   34.851   27.647    0.324    0.996 
 6928  407.240    4.198    3.279   34.851   27.647    0.324    0.996 
 6930  407.414    4.198    3.279   34.851   27.647    0.324    0.996 
 6932  407.587    4.198    3.279   34.851   27.647    0.324    0.996 
 6934  407.760    4.198    3.279   34.851   27.647    0.324    0.996 
 6936  407.934    4.198    3.279   34.851   27.647    0.301    0.996 
 6939  408.107    4.197    3.279   34.851   27.647    0.301    0.996 
 6941  408.281    4.197    3.279   34.851   27.647    0.301    0.996 
 6946  408.454    4.197    3.279   34.851   27.647    0.324    0.996 
 6949  408.627    4.197    3.279   34.851   27.647    0.301    0.996 
 6951  408.801    4.197    3.279   34.851   27.647    0.301    0.996 
 6954  408.974    4.196    3.279   34.851   27.647    0.301    0.996 
 6955  409.147    4.196    3.279   34.851   27.647    0.348    0.996 
 6958  409.321    4.196    3.279   34.850   27.647    0.348    0.996 
 6960  409.494    4.196    3.279   34.850   27.646    0.348    0.996 
 6961  409.667    4.196    3.279   34.850   27.646    0.348    0.996 
 6963  409.841    4.197    3.279   34.850   27.646    0.348    0.996 
 6966  410.014    4.197    3.279   34.850   27.646    0.371    0.996 
 6967  410.187    4.197    3.279   34.850   27.646    0.348    0.996 
 6969  410.361    4.197    3.279   34.850   27.646    0.348    0.996 
 6970  410.534    4.197    3.279   34.850   27.646    0.348    0.996 
 6972  410.707    4.198    3.279   34.850   27.646    0.371    0.996 
 6974  410.881    4.198    3.279   34.850   27.646    0.371    0.996 
 6976  411.054    4.198    3.279   34.849   27.646    0.348    0.996 
 6978  411.227    4.198    3.279   34.849   27.646    0.371    0.996 
 6979  411.401    4.198    3.279   34.849   27.646    0.371    0.996 
 6981  411.574    4.198    3.279   34.849   27.645    0.371    0.996 
 6982  411.747    4.198    3.279   34.848   27.645    0.371    0.996 
 6984  411.921    4.198    3.279   34.848   27.645    0.371    0.996 
 6987  412.267    4.197    3.279   34.848   27.645    0.348    0.996 
 6989  412.441    4.194    3.279   34.848   27.645    0.371    0.996 
 6991  412.614    4.191    3.279   34.848   27.645    0.371    0.996 
 6993  412.787    4.189    3.278   34.848   27.645    0.348    0.996 
 6995  412.961    4.188    3.278   34.848   27.645    0.324    0.996 
 6999  413.134    4.188    3.278   34.847   27.645    0.324    0.996 
 7002  413.307    4.188    3.278   34.846   27.645    0.324    0.996 
 7005  413.481    4.188    3.278   34.846   27.645    0.324    0.996 
 7007  413.654    4.188    3.278   34.846   27.645    0.324    0.996 
 7009  413.827    4.188    3.278   34.846   27.646    0.324    0.996 
 7011  414.001    4.177    3.278   34.846   27.646    0.324    0.993 
 7013  414.174    4.176    3.277   34.846   27.646    0.348    0.993 
 7015  414.348    4.156    3.276   34.846   27.646    0.348    0.993 
 7016  414.521    4.156    3.275   34.846   27.646    0.348    0.993 
 7019  414.694    4.155    3.275   34.846   27.645    0.348    0.993 
 7020  414.868    4.154    3.275   34.846   27.645    0.348    0.993 
 7021  415.041    4.154    3.275   34.846   27.645    0.348    0.993 
 7022  415.214    4.153    3.275   34.846   27.645    0.348    0.993 
 7023  415.388    4.150    3.275   34.846   27.645    0.348    0.993 
 7025  415.561    4.148    3.275   34.845   27.645    0.348    0.993 
 7026  415.734    4.147    3.275   34.844   27.645    0.348    0.993 
 7028  415.908    4.147    3.274   34.841   27.644    0.371    0.993 
 7029  416.081    4.147    3.274   34.841   27.644    0.371    0.993 
 7031  416.254    4.147    3.274   34.841   27.644    0.371    0.993 
 7032  416.428    4.147    3.274   34.841   27.644    0.371    0.993 
 7034  416.601    4.147    3.274   34.841   27.644    0.348    0.993 
 7036  416.774    4.147    3.274   34.841   27.644    0.371    0.993 
 7038  416.948    4.147    3.274   34.841   27.644    0.371    0.993 
 7040  417.121    4.147    3.274   34.841   27.644    0.371    0.993 
 7042  417.294    4.147    3.274   34.841   27.644    0.371    0.993 
 7044  417.468    4.147    3.274   34.841   27.644    0.371    0.993 
 7047  417.641    4.147    3.274   34.841   27.644    0.371    0.993 
 7049  417.814    4.146    3.274   34.841   27.644    0.371    0.993 
 7051  417.988    4.145    3.274   34.842   27.645    0.371    0.993 
 7052  418.161    4.145    3.274   34.842   27.645    0.371    0.993 
 7053  418.334    4.145    3.274   34.842   27.645    0.371    0.993 
 7056  418.508    4.144    3.274   34.842   27.645    0.371    0.993 
 7057  418.681    4.144    3.274   34.842   27.646    0.371    0.993 
 7059  418.854    4.144    3.274   34.842   27.646    0.371    0.993 
 7061  419.028    4.144    3.274   34.842   27.646    0.324    0.993 
 7062  419.201    4.144    3.274   34.842   27.646    0.324    0.993 
 7065  419.548    4.144    3.274   34.842   27.646    0.348    0.993 
 7067  419.721    4.144    3.274   34.842   27.646    0.324    0.993 
 7070  419.894    4.143    3.274   34.842   27.646    0.301    0.993 
 7071  420.068    4.143    3.274   34.842   27.646    0.301    0.993 
 7072  420.241    4.142    3.274   34.842   27.646    0.301    0.993 
 7074  420.414    4.137    3.274   34.843   27.647    0.301    0.993 
 7075  420.588    4.137    3.274   34.843   27.647    0.301    0.993 
 7078  420.761    4.135    3.274   34.843   27.647    0.301    0.993 
 7079  420.934    4.135    3.273   34.843   27.647    0.301    0.993 
 7081  421.108    4.134    3.273   34.843   27.647    0.324    0.993 
 7084  421.281    4.134    3.273   34.844   27.648    0.324    0.993 
 7086  421.454    4.132    3.273   34.844   27.648    0.324    0.993 
 7089  421.628    4.131    3.273   34.844   27.649    0.324    0.993 
 7093  421.801    4.125    3.273   34.845   27.650    0.324    0.993 
 7095  421.974    4.124    3.272   34.845   27.650    0.324    0.993 
 7099  422.148    4.119    3.272   34.845   27.650    0.324    0.993 
 7101  422.321    4.118    3.272   34.845   27.651    0.324    0.993 
 7104  422.494    4.117    3.272   34.845   27.651    0.348    0.993 
 7107  422.668    4.117    3.272   34.845   27.651    0.348    0.993 
 7108  422.841    4.117    3.272   34.845   27.651    0.348    0.993 
 7110  423.014    4.117    3.272   34.845   27.651    0.371    0.993 
 7112  423.188    4.117    3.272   34.845   27.651    0.371    0.989 
 7114  423.361    4.117    3.272   34.845   27.651    0.348    0.989 
 7115  423.534    4.117    3.272   34.845   27.651    0.371    0.989 
 7117  423.708    4.117    3.272   34.845   27.651    0.348    0.989 
 7119  423.881    4.117    3.272   34.845   27.651    0.348    0.989 
 7120  424.054    4.116    3.272   34.845   27.651    0.348    0.989 
 7121  424.228    4.116    3.272   34.845   27.651    0.348    0.989 
 7122  424.401    4.116    3.272   34.845   27.651    0.348    0.989 
 7123  424.574    4.116    3.272   34.845   27.651    0.324    0.989 
 7124  424.748    4.116    3.272   34.845   27.651    0.348    0.989 
 7125  424.921    4.116    3.272   34.845   27.651    0.348    0.989 
 7127  425.094    4.111    3.272   34.845   27.651    0.348    0.989 
 7128  425.268    4.109    3.271   34.845   27.651    0.348    0.989 
 7130  425.614    4.109    3.271   34.845   27.651    0.348    0.989 
 7132  425.788    4.106    3.271   34.845   27.652    0.324    0.989 
 7133  425.961    4.102    3.271   34.845   27.652    0.324    0.989 
 7134  426.134    4.096    3.270   34.845   27.652    0.348    0.989 
 7136  426.308    4.094    3.270   34.845   27.652    0.324    0.989 
 7138  426.481    4.093    3.270   34.845   27.652    0.348    0.989 
 7139  426.654    4.093    3.270   34.844   27.652    0.348    0.989 
 7141  426.828    4.093    3.270   34.844   27.652    0.348    0.989 
 7143  427.001    4.093    3.270   34.843   27.652    0.348    0.989 
 7146  427.174    4.093    3.270   34.843   27.652    0.348    0.989 
 7153  427.348    4.093    3.270   34.844   27.652    0.371    0.989 
 7159  427.521    4.094    3.270   34.844   27.652    0.348    0.989 
 7162  427.694    4.094    3.270   34.845   27.653    0.324    0.989 
 7164  427.868    4.095    3.270   34.845   27.653    0.324    0.989 
 7166  428.041    4.096    3.270   34.845   27.653    0.324    0.989 
 7168  428.214    4.098    3.270   34.845   27.653    0.324    0.989 
 7170  428.561    4.104    3.271   34.845   27.653    0.324    0.989 
 7172  428.734    4.105    3.271   34.845   27.653    0.324    0.989 
 7174  429.081    4.108    3.271   34.845   27.653    0.324    0.989 
 7176  429.254    4.108    3.272   34.849   27.655    0.324    0.989 
 7177  429.428    4.108    3.272   34.849   27.655    0.324    0.989 
 7178  429.601    4.108    3.272   34.850   27.655    0.324    0.989 
 7179  429.774    4.108    3.272   34.850   27.655    0.324    0.989 
 7180  429.948    4.108    3.272   34.850   27.655    0.324    0.989 
 7181  430.121    4.109    3.272   34.850   27.655    0.324    0.989 
 7182  430.294    4.109    3.272   34.850   27.655    0.324    0.989 
 7183  430.468    4.109    3.272   34.850   27.655    0.348    0.989 
 7184  430.641    4.109    3.272   34.850   27.655    0.348    0.989 
 7185  430.814    4.109    3.272   34.850   27.655    0.348    0.989 
 7186  430.988    4.109    3.272   34.850   27.655    0.371    0.989 
 7188  431.334    4.108    3.272   34.850   27.656    0.348    0.989 
 7190  431.681    4.108    3.272   34.850   27.656    0.371    0.989 
 7191  431.854    4.108    3.272   34.850   27.656    0.371    0.989 
 7193  432.028    4.108    3.272   34.850   27.656    0.348    0.989 
 7194  432.201    4.108    3.272   34.850   27.656    0.348    0.989 
 7195  432.374    4.108    3.272   34.850   27.656    0.371    0.989 
 7197  432.548    4.108    3.272   34.850   27.656    0.371    0.989 
 7199  432.721    4.108    3.272   34.850   27.656    0.371    0.985 
 7201  432.894    4.107    3.272   34.850   27.656    0.348    0.985 
 7203  433.068    4.107    3.272   34.850   27.656    0.348    0.985 
 7211  433.241    4.107    3.272   34.850   27.656    0.348    0.985 
 7223  433.414    4.106    3.272   34.850   27.656    0.348    0.985 
 7226  433.588    4.106    3.272   34.850   27.656    0.348    0.985 
 7230  433.761    4.106    3.272   34.850   27.656    0.348    0.985 
 7231  433.934    4.106    3.272   34.850   27.656    0.348    0.985 
 7232  434.108    4.106    3.272   34.850   27.656    0.348    0.985 
 7233  434.281    4.107    3.272   34.850   27.656    0.348    0.985 
 7235  434.454    4.108    3.272   34.850   27.656    0.324    0.985 
 7236  434.628    4.108    3.272   34.850   27.656    0.301    0.985 
 7238  434.974    4.109    3.272   34.850   27.655    0.301    0.985 
 7240  435.147    4.114    3.273   34.850   27.655    0.301    0.985 
 7242  435.321    4.117    3.273   34.849   27.654    0.324    0.985 
 7243  435.494    4.117    3.273   34.849   27.654    0.324    0.982 
 7244  435.667    4.118    3.273   34.849   27.654    0.324    0.985 
 7245  435.841    4.118    3.273   34.849   27.654    0.324    0.982 
 7246  436.014    4.118    3.273   34.849   27.654    0.324    0.982 
 7248  436.187    4.118    3.273   34.849   27.654    0.324    0.982 
 7250  436.534    4.118    3.273   34.849   27.654    0.324    0.982 
 7253  436.707    4.118    3.273   34.849   27.654    0.348    0.982 
 7254  436.881    4.118    3.273   34.849   27.654    0.348    0.982 
 7256  437.054    4.117    3.273   34.849   27.654    0.371    0.982 
 7257  437.227    4.117    3.273   34.849   27.654    0.371    0.982 
 7259  437.401    4.117    3.273   34.849   27.654    0.371    0.982 
 7261  437.574    4.117    3.273   34.849   27.654    0.371    0.982 
 7263  437.747    4.117    3.273   34.849   27.654    0.371    0.982 
 7264  437.921    4.116    3.273   34.849   27.654    0.371    0.982 
 7266  438.094    4.116    3.273   34.849   27.654    0.371    0.982 
 7268  438.267    4.116    3.273   34.849   27.654    0.371    0.985 
 7269  438.441    4.116    3.273   34.850   27.654    0.371    0.985 
 7271  438.614    4.116    3.273   34.850   27.654    0.348    0.985 
 7273  438.787    4.116    3.273   34.850   27.654    0.324    0.985 
 7274  438.961    4.116    3.273   34.850   27.654    0.324    0.985 
 7277  439.134    4.117    3.273   34.850   27.654    0.324    0.985 
 7279  439.307    4.117    3.273   34.850   27.654    0.324    0.985 
 7282  439.481    4.119    3.273   34.850   27.654    0.324    0.985 
 7283  439.654    4.120    3.274   34.850   27.654    0.324    0.985 
 7286  439.827    4.126    3.274   34.850   27.654    0.324    0.985 
 7288  440.001    4.127    3.274   34.850   27.654    0.324    0.985 
 7291  440.174    4.144    3.276   34.850   27.654    0.324    0.982 
 7294  440.347    4.147    3.276   34.850   27.654    0.324    0.982 
 7295  440.521    4.147    3.276   34.850   27.654    0.324    0.982 
 7298  440.694    4.147    3.276   34.851   27.654    0.324    0.982 
 7300  440.867    4.147    3.276   34.851   27.654    0.324    0.982 
 7303  441.040    4.148    3.276   34.851   27.654    0.324    0.982 
 7305  441.214    4.148    3.276   34.852   27.654    0.324    0.982 
 7307  441.387    4.148    3.276   34.855   27.655    0.324    0.982 
 7308  441.560    4.148    3.276   34.855   27.655    0.324    0.982 
 7310  441.734    4.148    3.277   34.856   27.656    0.371    0.982 
 7312  441.907    4.148    3.277   34.856   27.656    0.371    0.982 
 7313  442.080    4.149    3.277   34.856   27.656    0.371    0.982 
 7314  442.254    4.149    3.277   34.856   27.656    0.371    0.982 
 7316  442.427    4.150    3.277   34.856   27.656    0.371    0.982 
 7317  442.600    4.151    3.277   34.856   27.656    0.371    0.982 
 7318  442.774    4.151    3.277   34.856   27.656    0.371    0.982 
 7321  443.120    4.151    3.277   34.856   27.656    0.371    0.982 
 7323  443.294    4.151    3.277   34.858   27.656    0.371    0.982 
 7325  443.467    4.152    3.277   34.858   27.656    0.371    0.982 
 7326  443.640    4.152    3.277   34.858   27.656    0.371    0.982 
 7328  443.814    4.152    3.277   34.858   27.656    0.371    0.982 
 7329  443.987    4.152    3.277   34.858   27.656    0.371    0.982 
 7331  444.160    4.152    3.277   34.858   27.656    0.348    0.982 
 7334  444.334    4.152    3.277   34.858   27.656    0.324    0.982 
 7336  444.507    4.152    3.277   34.858   27.656    0.348    0.982 
 7339  444.680    4.153    3.277   34.858   27.657    0.348    0.982 
 7344  444.853    4.160    3.278   34.858   27.657    0.348    0.982 
 7347  445.027    4.169    3.279   34.858   27.657    0.348    0.982 
 7349  445.200    4.175    3.279   34.859   27.657    0.348    0.982 
 7353  445.373    4.185    3.280   34.859   27.657    0.324    0.982 
 7355  445.547    4.188    3.281   34.859   27.657    0.324    0.982 
 7357  445.720    4.191    3.281   34.860   27.657    0.301    0.982 
 7359  445.893    4.192    3.281   34.861   27.657    0.301    0.982 
 7361  446.067    4.193    3.281   34.861   27.657    0.278    0.982 
 7362  446.240    4.193    3.281   34.863   27.657    0.278    0.978 
 7364  446.413    4.194    3.282   34.863   27.657    0.278    0.982 
 7366  446.587    4.194    3.282   34.863   27.656    0.278    0.978 
 7368  446.760    4.196    3.282   34.863   27.656    0.301    0.978 
 7369  446.933    4.198    3.282   34.863   27.656    0.324    0.978 
 7371  447.107    4.198    3.282   34.863   27.656    0.324    0.978 
 7373  447.280    4.198    3.282   34.863   27.656    0.324    0.978 
 7374  447.453    4.198    3.282   34.863   27.656    0.324    0.978 
 7376  447.627    4.198    3.282   34.863   27.656    0.324    0.978 
 7378  447.800    4.198    3.282   34.863   27.656    0.324    0.978 
 7380  447.973    4.199    3.282   34.863   27.656    0.324    0.978 
 7382  448.147    4.199    3.282   34.863   27.656    0.324    0.978 
 7383  448.320    4.199    3.282   34.863   27.656    0.324    0.978 
 7385  448.493    4.200    3.282   34.862   27.655    0.324    0.978 
 7386  448.666    4.200    3.282   34.862   27.655    0.348    0.978 
 7388  448.840    4.200    3.282   34.862   27.655    0.371    0.978 
 7389  449.013    4.200    3.282   34.862   27.655    0.371    0.978 
 7391  449.186    4.200    3.282   34.862   27.655    0.348    0.978 
 7392  449.360    4.200    3.282   34.862   27.655    0.348    0.978 
 7393  449.533    4.200    3.282   34.862   27.655    0.371    0.978 
 7395  449.706    4.200    3.282   34.861   27.655    0.348    0.978 
 7396  449.880    4.200    3.282   34.861   27.655    0.348    0.978 
 7397  450.053    4.200    3.282   34.861   27.655    0.348    0.978 
 7399  450.226    4.200    3.282   34.861   27.655    0.324    0.978 
 7400  450.400    4.200    3.282   34.861   27.655    0.348    0.978 
 7402  450.573    4.200    3.282   34.861   27.655    0.348    0.978 
 7403  450.746    4.200    3.282   34.861   27.655    0.348    0.978 
 7405  450.920    4.200    3.282   34.861   27.655    0.348    0.978 
 7407  451.093    4.200    3.282   34.861   27.655    0.324    0.978 
 7409  451.266    4.200    3.282   34.861   27.655    0.324    0.978 
 7411  451.439    4.200    3.282   34.861   27.655    0.324    0.978 
 7413  451.613    4.200    3.282   34.861   27.655    0.301    0.978 
 7415  451.786    4.200    3.282   34.861   27.655    0.301    0.978 
 7417  451.959    4.200    3.282   34.861   27.655    0.301    0.978 
 7418  452.133    4.201    3.283   34.861   27.655    0.324    0.978 
 7421  452.306    4.210    3.283   34.866   27.657    0.348    0.978 
 7422  452.479    4.217    3.284   34.870   27.659    0.324    0.978 
 7424  452.653    4.222    3.285   34.870   27.659    0.348    0.978 
 7425  452.826    4.222    3.285   34.870   27.659    0.348    0.978 
 7427  452.999    4.222    3.285   34.870   27.659    0.348    0.978 
 7428  453.173    4.222    3.285   34.870   27.659    0.348    0.978 
 7430  453.346    4.223    3.285   34.870   27.659    0.348    0.978 
 7431  453.519    4.223    3.285   34.870   27.659    0.371    0.978 
 7432  453.693    4.223    3.285   34.870   27.659    0.371    0.978 
 7434  453.866    4.223    3.285   34.870   27.659    0.371    0.978 
 7436  454.039    4.223    3.285   34.870   27.659    0.371    0.978 
 7438  454.212    4.223    3.285   34.870   27.659    0.324    0.978 
 7440  454.386    4.223    3.285   34.870   27.659    0.324    0.978 
 7443  454.559    4.223    3.285   34.870   27.659    0.324    0.978 
 7445  454.732    4.223    3.285   34.870   27.659    0.324    0.978 
 7451  454.906    4.223    3.285   34.870   27.659    0.324    0.978 
 7453  455.079    4.223    3.285   34.870   27.659    0.324    0.978 
 7456  455.252    4.223    3.285   34.870   27.659    0.324    0.978 
 7458  455.426    4.225    3.285   34.870   27.659    0.324    0.978 
 7459  455.599    4.227    3.285   34.870   27.659    0.324    0.978 
 7461  455.772    4.233    3.286   34.870   27.658    0.324    0.978 
 7462  455.946    4.233    3.286   34.870   27.658    0.324    0.978 
 7463  456.119    4.233    3.286   34.870   27.658    0.348    0.978 
 7465  456.292    4.233    3.286   34.870   27.658    0.348    0.978 
 7466  456.639    4.233    3.286   34.870   27.658    0.348    0.978 
 7467  456.812    4.233    3.286   34.870   27.658    0.348    0.978 
 7468  456.985    4.233    3.286   34.870   27.658    0.348    0.978 
 7469  457.159    4.233    3.286   34.870   27.658    0.348    0.978 
 7470  457.332    4.233    3.286   34.870   27.658    0.348    0.975 
 7471  457.505    4.233    3.286   34.870   27.658    0.348    0.975 
 7472  457.679    4.233    3.286   34.870   27.658    0.348    0.978 
 7473  457.852    4.233    3.286   34.870   27.658    0.324    0.975 
 7474  458.025    4.232    3.286   34.870   27.659    0.348    0.975 
 7475  458.199    4.232    3.286   34.870   27.659    0.348    0.975 
 7476  458.372    4.232    3.286   34.870   27.659    0.348    0.975 
 7477  458.545    4.231    3.286   34.871   27.659    0.348    0.975 
 7478  458.718    4.231    3.286   34.871   27.659    0.324    0.975 
 7480  458.892    4.229    3.286   34.873   27.661    0.324    0.975 
 7481  459.065    4.229    3.286   34.873   27.661    0.324    0.975 
 7483  459.238    4.229    3.286   34.873   27.661    0.348    0.975 
 7504  459.412    4.228    3.286   34.874   27.662    0.324    0.975 
 7506  459.585    4.228    3.286   34.874   27.662    0.324    0.975 
 7507  459.758    4.228    3.286   34.874   27.662    0.324    0.975 
 7509  459.932    4.227    3.286   34.875   27.663    0.324    0.975 
 7510  460.105    4.226    3.286   34.876   27.663    0.324    0.975 
 7511  460.278    4.225    3.286   34.877   27.664    0.324    0.975 
 7512  460.452    4.224    3.286   34.878   27.665    0.324    0.975 
 7513  460.625    4.223    3.286   34.878   27.666    0.324    0.975 
 7514  460.798    4.223    3.286   34.879   27.666    0.324    0.975 
 7516  461.145    4.221    3.286   34.880   27.668    0.324    0.975 
 7517  461.318    4.221    3.286   34.880   27.668    0.324    0.975 
 7518  461.491    4.221    3.286   34.880   27.668    0.324    0.975 
 7520  461.838    4.220    3.286   34.881   27.668    0.348    0.975 
 7521  462.011    4.220    3.286   34.881   27.668    0.348    0.975 
 7522  462.185    4.220    3.286   34.881   27.668    0.348    0.975 
 7523  462.358    4.220    3.286   34.881   27.668    0.348    0.975 
 7524  462.531    4.220    3.286   34.881   27.668    0.324    0.975 
 7525  462.705    4.220    3.286   34.881   27.668    0.348    0.975 
 7526  462.878    4.220    3.286   34.881   27.668    0.348    0.975 
 7528  463.051    4.219    3.286   34.881   27.668    0.324    0.971 
 7529  463.224    4.219    3.286   34.881   27.668    0.348    0.975 
 7531  463.398    4.219    3.286   34.881   27.668    0.348    0.975 
 7533  463.571    4.219    3.286   34.881   27.669    0.324    0.975 
 7535  463.744    4.219    3.286   34.881   27.669    0.324    0.975 
 7537  463.918    4.219    3.286   34.881   27.669    0.324    0.975 
 7542  464.091    4.219    3.286   34.881   27.669    0.324    0.975 
 7547  464.264    4.219    3.286   34.881   27.669    0.324    0.975 
 7550  464.438    4.218    3.286   34.881   27.669    0.324    0.971 
 7552  464.611    4.218    3.286   34.881   27.669    0.324    0.971 
 7554  464.784    4.218    3.286   34.881   27.669    0.324    0.971 
 7557  464.957    4.218    3.286   34.881   27.669    0.324    0.971 
 7558  465.131    4.218    3.286   34.881   27.669    0.324    0.971 
 7559  465.304    4.218    3.286   34.881   27.669    0.324    0.971 
 7560  465.477    4.218    3.286   34.881   27.669    0.324    0.971 
 7562  465.824    4.218    3.286   34.881   27.669    0.324    0.971 
 7564  465.997    4.217    3.286   34.881   27.669    0.371    0.971 
 7565  466.171    4.216    3.286   34.881   27.669    0.371    0.971 
 7566  466.344    4.216    3.286   34.881   27.669    0.371    0.971 
 7567  466.517    4.215    3.285   34.877   27.666    0.371    0.971 
 7568  466.690    4.214    3.285   34.877   27.666    0.371    0.971 
 7569  466.864    4.213    3.285   34.877   27.666    0.371    0.971 
 7570  467.037    4.213    3.285   34.876   27.666    0.371    0.971 
 7571  467.210    4.213    3.285   34.876   27.666    0.371    0.971 
 7572  467.384    4.212    3.285   34.876   27.666    0.371    0.971 
 7574  467.557    4.211    3.285   34.876   27.666    0.371    0.971 
 7575  467.730    4.210    3.285   34.876   27.666    0.371    0.971 
 7576  467.904    4.210    3.285   34.876   27.666    0.394    0.971 
 7577  468.077    4.210    3.285   34.876   27.666    0.394    0.971 
 7579  468.250    4.210    3.285   34.876   27.666    0.394    0.971 
 7581  468.423    4.210    3.285   34.876   27.666    0.394    0.971 
 7604  468.597    4.210    3.285   34.876   27.666    0.394    0.971 
 7606  468.770    4.210    3.285   34.876   27.666    0.371    0.971 
 7608  468.943    4.210    3.285   34.876   27.666    0.371    0.971 
 7609  469.117    4.210    3.285   34.877   27.666    0.371    0.971 
 7610  469.290    4.210    3.285   34.877   27.666    0.371    0.971 
 7611  469.463    4.210    3.285   34.877   27.666    0.371    0.971 
 7612  469.637    4.209    3.285   34.877   27.666    0.371    0.971 
 7613  469.810    4.209    3.285   34.877   27.666    0.371    0.971 
 7614  469.983    4.209    3.285   34.877   27.666    0.348    0.971 
 7615  470.330    4.208    3.285   34.877   27.666    0.348    0.971 
 7616  470.503    4.206    3.285   34.877   27.666    0.348    0.971 
 7617  470.676    4.205    3.285   34.877   27.667    0.348    0.971 
 7618  470.850    4.203    3.285   34.877   27.667    0.348    0.971 
 7619  471.196    4.195    3.284   34.877   27.667    0.348    0.971 
 7620  471.370    4.176    3.283   34.877   27.667    0.348    0.971 
 7621  471.543    4.165    3.281   34.877   27.667    0.348    0.971 
 7622  471.889    4.161    3.281   34.877   27.667    0.348    0.971 
 7623  472.063    4.160    3.281   34.877   27.667    0.348    0.971 
 7624  472.236    4.159    3.281   34.877   27.667    0.348    0.975 
 7625  472.409    4.159    3.280   34.877   27.667    0.348    0.975 
 7626  472.583    4.159    3.280   34.875   27.667    0.348    0.975 
 7627  472.756    4.159    3.280   34.871   27.667    0.348    0.975 
 7628  472.929    4.159    3.280   34.869   27.665    0.324    0.975 
 7630  473.276    4.158    3.280   34.870   27.666    0.324    0.975 
 7632  473.449    4.158    3.280   34.870   27.666    0.324    0.975 
 7634  473.622    4.158    3.280   34.870   27.666    0.324    0.975 
 7666  473.796    4.160    3.281   34.879   27.673    0.348    0.971 
 7667  473.969    4.160    3.281   34.879   27.673    0.371    0.971 
 7670  474.142    4.157    3.280   34.870   27.667    0.371    0.971 
 7672  474.316    4.157    3.280   34.870   27.667    0.371    0.967 
 7673  474.489    4.157    3.280   34.870   27.667    0.371    0.967 
 7675  474.662    4.156    3.280   34.871   27.667    0.371    0.967 
 7677  474.835    4.156    3.280   34.871   27.667    0.371    0.967 
