NAFC_Y2K_HEADER
39673009  49 38.83 -047  1.71 2006-06-12 10:55 2354 S0281 009 V  stn 9         1
39673009 002706  8.00 A 08 #PTCSMFL------------            D 000 0000 0506 000 4
39673009 9 19 20 42 1008.0 009.5 009.0 04 03 19 04 04                          8
-- CHANNEL STATS -->
# span     scan =   3114.000,  8274.000
# span     pres =      0.725,   506.546
# span     temp =      3.911,     9.393
# span     cond =      3.214,     3.672
# span      sal =     34.174,    34.911
# span     sigt =     26.409,    27.698
# span     flor =      0.278,     9.246
# span      par =      0.905,   104.410
-- END --
-- HISTORY --> Thu Jun 22 14:22:54 2006
>SELECT_PROBE S
>READ # (DP) T C L F scan pres temp cond par flor
>STABILIZE_RESTRICT USING= pres 10.0 5 
>RESTRICT USING= pres 0.0 2000.0
>RESTRICT USING= cond 2.0 5.0
>RESTRICT USING= temp -2.0 20.0
>RESTRICT USING= scan 500.0 30000.0
>MEDIANFILTER pres 21 1
>MEDIANFILTER temp 21 1
>MEDIANFILTER cond 21 1
>MEDIANFILTER flor 21 1
>MEDIANFILTER par 21 1
>SELECT_DN USING= pres
>SALINITY PRESSURE=pres CONDUCTIVITY=cond TEMPERATURE=temp RESULT=sal
>RESTRICT USING= sal 29.0 36.0
>MEDIANFILTER sal 21 1
>SIGMAT SALINITY=sal TEMPERATURE=temp RESULT=sigt
>MEDIANFILTER sigt 21 1
>HISTORY_ON
>WRITEFILE .p???? scan pres temp cond sal sigt flor par
-- END --
 scan     pres     temp     cond      sal     sigt     flor      par 
-- DATA --
 3114    0.725    9.393    3.672   34.175   26.409    3.554  103.640 
 3117    0.899    9.393    3.672   34.175   26.409    3.693  104.410 
 3124    1.072    9.393    3.672   34.175   26.409    3.763  100.990 
 3128    1.246    9.393    3.672   34.175   26.409    3.786   95.894 
 3129    1.420    9.393    3.672   34.175   26.409    3.786   93.790 
 3132    1.593    9.393    3.672   34.175   26.409    3.786   86.462 
 3134    1.767    9.393    3.672   34.175   26.409    3.786   86.143 
 3138    1.941    9.393    3.672   34.175   26.409    3.786   83.942 
 3157    2.114    9.392    3.672   34.176   26.410    3.763   81.194 
 3162    2.288    9.392    3.672   34.176   26.410    3.763   80.894 
 3169    2.462    9.392    3.672   34.175   26.410    3.856   79.119 
 3173    2.635    9.392    3.672   34.175   26.410    3.902   68.494 
 3176    2.809    9.392    3.672   34.175   26.410    3.925   62.677 
 3178    2.982    9.392    3.672   34.176   26.410    3.925   60.850 
 3180    3.156    9.392    3.672   34.176   26.410    3.925   60.850 
 3181    3.330    9.392    3.672   34.176   26.410    3.925   60.850 
 3183    3.503    9.391    3.672   34.176   26.410    3.925   59.515 
 3185    3.677    9.391    3.672   34.176   26.410    3.949   57.994 
 3186    3.851    9.391    3.672   34.176   26.410    3.972   56.512 
 3188    4.024    9.391    3.672   34.176   26.410    3.995   54.259 
 3191    4.198    9.391    3.672   34.176   26.410    3.995   51.904 
 3194    4.372    9.391    3.672   34.175   26.410    3.995   49.468 
 3198    4.545    9.391    3.672   34.175   26.410    3.972   46.972 
 3205    4.719    9.390    3.672   34.175   26.410    4.018   45.772 
 3211    4.893    9.391    3.672   34.175   26.410    3.949   45.435 
 3213    5.066    9.391    3.672   34.175   26.410    3.949   45.100 
 3235    5.240    9.391    3.672   34.175   26.410    4.042   42.983 
 3240    5.414    9.391    3.672   34.175   26.410    4.065   42.040 
 3246    5.587    9.391    3.672   34.175   26.410    4.135   39.333 
 3251    5.761    9.390    3.672   34.175   26.410    4.135   38.613 
 3259    5.935    9.390    3.672   34.175   26.410    4.158   37.073 
 3274    6.108    9.391    3.672   34.175   26.409    4.088   35.993 
 3283    6.282    9.391    3.672   34.175   26.409    4.158   35.993 
 3290    6.456    9.391    3.672   34.175   26.409    4.204   35.596 
 3295    6.629    9.391    3.672   34.175   26.409    4.274   34.431 
 3297    6.803    9.391    3.672   34.175   26.409    4.274   33.675 
 3299    6.977    9.391    3.672   34.175   26.409    4.274   32.573 
 3302    7.150    9.391    3.672   34.175   26.409    4.251   31.390 
 3304    7.324    9.391    3.672   34.175   26.409    4.181   30.588 
 3306    7.497    9.391    3.672   34.174   26.409    4.135   29.697 
 3307    7.671    9.391    3.672   34.174   26.409    4.135   29.261 
 3310    7.845    9.391    3.672   34.174   26.409    4.111   27.784 
 3312    8.018    9.391    3.672   34.174   26.409    4.111   26.875 
 3315    8.192    9.390    3.672   34.174   26.409    4.111   25.708 
 3318    8.366    9.390    3.672   34.174   26.409    4.135   24.867 
 3321    8.539    9.390    3.672   34.174   26.409    4.135   24.684 
 3345    8.713    9.390    3.672   34.175   26.409    4.135   24.411 
 3347    8.887    9.390    3.672   34.175   26.409    4.158   23.788 
 3349    9.060    9.390    3.672   34.175   26.409    4.158   23.266 
 3351    9.234    9.390    3.672   34.175   26.409    4.158   22.671 
 3353    9.408    9.389    3.672   34.175   26.410    4.181   22.010 
 3354    9.581    9.388    3.672   34.176   26.411    4.204   21.527 
 3355    9.755    9.388    3.672   34.176   26.411    4.204   21.133 
 3356    9.929    9.387    3.672   34.177   26.411    4.204   20.746 
 3358   10.102    9.386    3.672   34.177   26.412    4.227   19.993 
 3359   10.276    9.386    3.672   34.177   26.412    4.251   19.554 
 3360   10.450    9.386    3.672   34.177   26.412    4.251   19.054 
 3362   10.797    9.386    3.672   34.178   26.412    4.251   18.227 
 3364   10.971    9.386    3.672   34.178   26.412    4.297   17.631 
 3365   11.144    9.386    3.672   34.178   26.412    4.297   17.372 
 3368   11.318    9.385    3.672   34.178   26.413    4.297   16.074 
 3369   11.491    9.385    3.672   34.178   26.413    4.297   15.896 
 3371   11.665    9.380    3.672   34.183   26.417    4.297   15.548 
 3376   11.839    9.378    3.672   34.185   26.419    4.274   14.818 
 3382   12.012    9.377    3.672   34.185   26.419    4.181   14.493 
 3390   12.186    9.377    3.672   34.185   26.419    4.297   14.122 
 3393   12.360    9.377    3.672   34.185   26.419    4.344   13.813 
 3396   12.533    9.377    3.672   34.185   26.419    4.483   13.311 
 3398   12.707    9.377    3.672   34.185   26.419    4.530   12.923 
 3399   12.881    9.377    3.672   34.185   26.420    4.530   12.828 
 3400   13.054    9.377    3.672   34.185   26.420    4.553   12.640 
 3401   13.228    9.377    3.672   34.185   26.420    4.576   12.408 
 3402   13.402    9.377    3.672   34.185   26.420    4.599   12.226 
 3404   13.749    9.377    3.672   34.185   26.420    4.646   11.609 
 3405   13.923    9.377    3.672   34.185   26.420    4.646   11.312 
 3406   14.096    9.377    3.672   34.185   26.420    4.646   11.105 
 3407   14.270    9.376    3.672   34.185   26.420    4.646   10.781 
 3408   14.443    9.373    3.672   34.188   26.423    4.669   10.545 
 3409   14.617    9.368    3.672   34.193   26.427    4.669   10.313 
 3410   14.791    9.361    3.672   34.199   26.433    4.785   10.050 
 3412   14.964    9.358    3.672   34.202   26.436    4.855    9.614 
 3413   15.138    9.354    3.672   34.206   26.440    4.878    9.403 
 3414   15.312    9.353    3.672   34.207   26.441    4.878    9.196 
 3415   15.485    9.350    3.672   34.210   26.443    4.878    9.028 
 3416   15.659    9.347    3.672   34.212   26.446    4.901    8.830 
 3418   16.006    9.347    3.672   34.212   26.446    4.901    8.509 
 3421   16.180    9.346    3.672   34.213   26.447    4.901    8.080 
 3423   16.354    9.344    3.672   34.215   26.448    4.878    7.815 
 3425   16.527    9.344    3.672   34.215   26.448    4.878    7.616 
 3430   16.701    9.344    3.672   34.215   26.448    4.832    7.258 
 3437   16.875    9.344    3.672   34.215   26.448    4.832    6.995 
 3441   17.048    9.344    3.672   34.215   26.448    4.948    6.816 
 3445   17.222    9.343    3.672   34.215   26.448    5.041    6.617 
 3447   17.395    9.343    3.672   34.215   26.448    5.110    6.496 
 3449   17.743    9.343    3.672   34.215   26.448    5.134    6.401 
 3451   17.916    9.342    3.672   34.215   26.449    5.157    6.307 
 3452   18.090    9.342    3.672   34.215   26.449    5.157    6.260 
 3453   18.264    9.340    3.672   34.215   26.449    5.157    6.168 
 3454   18.437    9.340    3.672   34.215   26.449    5.203    6.056 
 3455   18.611    9.340    3.672   34.215   26.449    5.227    5.967 
 3456   18.785    9.337    3.671   34.216   26.450    5.227    5.901 
 3457   18.958    9.337    3.671   34.216   26.450    5.273    5.793 
 3458   19.132    9.337    3.671   34.216   26.450    5.296    5.687 
 3459   19.479    9.336    3.671   34.216   26.451    5.319    5.562 
 3461   19.826    9.321    3.671   34.218   26.454    5.343    5.301 
 3462   20.000    9.314    3.670   34.218   26.455    5.343    5.204 
 3463   20.174    9.312    3.670   34.218   26.456    5.366    5.071 
 3464   20.347    9.310    3.669   34.218   26.456    5.389    4.941 
 3465   20.521    9.310    3.669   34.218   26.456    5.436    4.833 
 3466   20.695    9.308    3.669   34.221   26.459    5.436    4.779 
 3467   20.868    9.306    3.669   34.222   26.460    5.459    4.657 
 3468   21.042    9.306    3.669   34.223   26.461    5.505    4.555 
 3469   21.216    9.295    3.669   34.225   26.464    5.552    4.455 
 3470   21.389    9.280    3.667   34.225   26.467    5.598    4.341 
 3471   21.563    9.261    3.666   34.225   26.470    5.738    4.230 
 3472   21.737    9.255    3.665   34.225   26.471    5.784    4.137 
 3473   21.910    9.254    3.665   34.226   26.472    5.807    4.047 
 3474   22.084    9.251    3.665   34.226   26.472    5.807    4.017 
 3475   22.257    9.243    3.664   34.229   26.475    5.807    3.943 
 3478   22.431    9.211    3.662   34.229   26.481    5.900    3.772 
 3479   22.605    9.208    3.662   34.230   26.482    5.900    3.717 
 3481   22.778    9.206    3.662   34.231   26.483    5.900    3.608 
 3486   22.952    9.206    3.662   34.234   26.485    5.807    3.452 
 3495   23.126    9.216    3.662   34.236   26.486    5.807    3.302 
 3501   23.299    9.222    3.662   34.239   26.487    5.947    3.206 
 3504   23.647    9.222    3.662   34.240   26.488    6.411    3.147 
 3506   23.820    9.212    3.662   34.240   26.490    6.458    3.089 
 3507   23.994    9.180    3.661   34.254   26.506    6.621    3.055 
 3509   24.168    9.140    3.658   34.262   26.518    6.853    2.999 
 3510   24.341    9.124    3.657   34.266   26.524    7.039    2.988 
 3511   24.515    9.113    3.656   34.267   26.526    7.108    2.977 
 3512   24.688    9.104    3.656   34.275   26.534    7.248    2.944 
 3513   25.036    9.092    3.655   34.276   26.537    7.248    2.901 
 3514   25.209    9.066    3.654   34.279   26.543    7.364    2.880 
 3515   25.383    9.056    3.652   34.283   26.548    7.387    2.817 
 3516   25.557    9.052    3.652   34.287   26.552    7.434    2.786 
 3517   25.904    9.048    3.652   34.290   26.555    7.527    2.724 
 3518   26.078    9.044    3.652   34.291   26.556    7.689    2.655 
 3519   26.251    9.041    3.652   34.293   26.558    7.852    2.596 
 3520   26.425    9.035    3.652   34.299   26.564    7.945    2.539 
 3521   26.598    8.997    3.649   34.304   26.574    7.991    2.466 
 3522   26.772    8.964    3.646   34.305   26.580    8.014    2.429 
 3523   26.946    8.896    3.642   34.309   26.594    8.131    2.376 
 3524   27.293    8.839    3.636   34.309   26.603    8.224    2.332 
 3526   27.467    8.750    3.628   34.309   26.617    8.897    2.248 
 3527   27.640    8.721    3.625   34.311   26.623    8.920    2.198 
 3528   27.814    8.703    3.623   34.311   26.626    8.920    2.158 
 3529   27.988    8.667    3.620   34.313   26.633    8.920    2.126 
 3530   28.161    8.610    3.616   34.315   26.644    8.920    2.095 
 3533   28.335    8.570    3.611   34.317   26.651    9.176    2.034 
 3534   28.508    8.568    3.610   34.317   26.652    9.222    2.019 
 3537   28.682    8.565    3.610   34.318   26.652    9.246    1.953 
 3540   28.856    8.565    3.610   34.318   26.652    9.222    1.924 
 3553   29.029    8.571    3.609   34.318   26.653    9.246    1.814 
 3555   29.203    8.571    3.609   34.318   26.653    9.222    1.801 
 3558   29.377    8.541    3.608   34.318   26.657    9.153    1.768 
 3559   29.550    8.502    3.606   34.318   26.663    9.037    1.768 
 3561   29.898    8.408    3.599   34.319   26.677    9.013    1.755 
 3563   30.071    8.372    3.593   34.322   26.686    8.967    1.735 
 3564   30.245    8.368    3.593   34.322   26.686    8.828    1.735 
 3566   30.592    8.366    3.592   34.330   26.693    8.177    1.722 
 3567   30.766    8.361    3.592   34.347   26.707    7.805    1.716 
 3569   31.113    8.312    3.591   34.355   26.721    7.712    1.703 
 3570   31.287    8.184    3.581   34.374   26.755    7.457    1.697 
 3571   31.460    8.078    3.573   34.376   26.773    6.760    1.691 
 3573   31.808    7.840    3.552   34.378   26.809    4.344    1.654 
 3574   31.981    7.824    3.549   34.378   26.812    3.600    1.641 
 3575   32.155    7.819    3.548   34.383   26.816    3.484    1.623 
 3576   32.328    7.814    3.548   34.384   26.818    3.275    1.612 
 3577   32.502    7.808    3.547   34.392   26.825    3.205    1.588 
 3578   32.676    7.799    3.546   34.398   26.831    3.136    1.588 
 3579   32.849    7.775    3.546   34.399   26.836    3.066    1.570 
 3580   33.023    7.708    3.541   34.400   26.846    3.019    1.564 
 3581   33.197    7.648    3.535   34.401   26.855    2.996    1.553 
 3582   33.370    7.627    3.533   34.405   26.862    2.880    1.547 
 3584   33.718    7.601    3.530   34.406   26.866    2.625    1.530 
 3585   33.891    7.589    3.529   34.412   26.873    2.601    1.513 
 3587   34.065    7.493    3.523   34.419   26.892    2.485    1.508 
 3588   34.238    7.444    3.518   34.424   26.903    2.439    1.502 
 3589   34.412    7.416    3.515   34.427   26.909    2.392    1.497 
 3591   34.586    7.315    3.507   34.429   26.926    2.346    1.486 
 3593   34.759    7.195    3.497   34.430   26.943    2.253    1.480 
 3594   34.933    7.153    3.494   34.431   26.949    2.206    1.475 
 3596   35.107    7.122    3.490   34.432   26.954    2.206    1.469 
 3598   35.280    7.115    3.489   34.432   26.955    2.090    1.458 
 3600   35.454    7.102    3.488   34.433   26.958    2.090    1.453 
 3602   35.627    7.093    3.487   34.434   26.960    2.067    1.442 
 3605   35.801    7.083    3.486   34.434   26.962    2.020    1.437 
 3607   35.975    7.067    3.484   34.436   26.965    1.974    1.432 
 3608   36.148    7.064    3.484   34.438   26.968    1.951    1.426 
 3610   36.322    7.063    3.484   34.442   26.971    1.881    1.416 
 3612   36.496    7.040    3.482   34.446   26.977    1.858    1.416 
 3615   36.669    6.850    3.468   34.451   27.007    1.765    1.405 
 3616   36.843    6.838    3.465   34.454   27.011    1.742    1.405 
 3618   37.017    6.819    3.464   34.456   27.015    1.742    1.395 
 3620   37.190    6.817    3.464   34.456   27.016    1.718    1.390 
 3622   37.364    6.817    3.464   34.456   27.016    1.672    1.390 
 3625   37.537    6.817    3.464   34.456   27.016    1.602    1.380 
 3626   37.711    6.817    3.464   34.467   27.024    1.602    1.375 
 3628   37.885    6.817    3.465   34.467   27.024    1.602    1.370 
 3629   38.058    6.817    3.465   34.468   27.025    1.602    1.370 
 3631   38.232    6.817    3.466   34.477   27.032    1.533    1.359 
 3632   38.406    6.817    3.466   34.477   27.032    1.463    1.359 
 3634   38.579    6.817    3.466   34.478   27.032    1.463    1.359 
 3635   38.753    6.817    3.466   34.478   27.033    1.463    1.354 
 3636   38.926    6.817    3.466   34.478   27.033    1.440    1.354 
 3637   39.100    6.817    3.466   34.478   27.033    1.440    1.354 
 3638   39.274    6.817    3.466   34.478   27.033    1.440    1.349 
 3640   39.447    6.814    3.466   34.479   27.034    1.440    1.349 
 3641   39.621    6.813    3.466   34.480   27.035    1.440    1.349 
 3642   39.795    6.812    3.466   34.481   27.036    1.440    1.344 
 3643   39.968    6.812    3.466   34.482   27.036    1.440    1.339 
 3644   40.142    6.811    3.466   34.482   27.037    1.440    1.339 
 3645   40.315    6.811    3.466   34.482   27.037    1.440    1.334 
 3646   40.489    6.810    3.466   34.483   27.038    1.440    1.334 
 3648   40.663    6.801    3.465   34.483   27.039    1.440    1.330 
 3649   40.836    6.770    3.464   34.484   27.044    1.463    1.330 
 3651   41.010    6.764    3.462   34.486   27.046    1.463    1.325 
 3652   41.184    6.759    3.461   34.490   27.051    1.463    1.325 
 3653   41.357    6.748    3.461   34.492   27.053    1.463    1.320 
 3655   41.531    6.723    3.460   34.494   27.058    1.486    1.320 
 3658   41.704    6.697    3.457   34.494   27.062    1.509    1.315 
 3659   41.878    6.697    3.457   34.494   27.062    1.509    1.315 
 3661   42.052    6.691    3.456   34.494   27.062    1.509    1.315 
 3663   42.225    6.689    3.456   34.496   27.065    1.509    1.310 
 3665   42.399    6.642    3.454   34.497   27.071    1.486    1.310 
 3667   42.573    6.565    3.447   34.497   27.082    1.486    1.305 
 3669   42.746    6.287    3.423   34.497   27.119    1.486    1.305 
 3671   42.920    6.278    3.419   34.497   27.120    1.486    1.300 
 3672   43.093    6.275    3.419   34.500   27.122    1.393    1.300 
 3674   43.267    6.267    3.418   34.504   27.126    1.370    1.300 
 3675   43.441    6.264    3.417   34.504   27.127    1.370    1.296 
 3677   43.614    6.244    3.415   34.504   27.129    1.347    1.291 
 3678   43.788    6.238    3.415   34.504   27.130    1.300    1.291 
 3680   43.962    6.199    3.414   34.504   27.135    1.277    1.286 
 3683   44.135    6.160    3.409   34.504   27.140    1.277    1.281 
 3684   44.309    6.140    3.408   34.502   27.142    1.277    1.281 
 3685   44.482    6.123    3.406   34.500   27.142    1.254    1.281 
 3687   44.656    6.071    3.402   34.497   27.146    1.277    1.272 
 3689   44.830    5.892    3.388   34.496   27.169    1.230    1.267 
 3690   45.003    5.857    3.382   34.496   27.173    1.207    1.267 
 3691   45.177    5.808    3.380   34.492   27.176    1.207    1.263 
 3692   45.351    5.784    3.375   34.492   27.178    1.230    1.263 
 3694   45.524    5.779    3.374   34.492   27.179    1.207    1.258 
 3696   45.698    5.778    3.373   34.496   27.182    1.207    1.258 
 3697   45.871    5.777    3.373   34.496   27.182    1.207    1.258 
 3699   46.045    5.773    3.372   34.496   27.183    1.207    1.258 
 3701   46.219    5.767    3.372   34.496   27.183    1.184    1.253 
 3702   46.392    5.753    3.371   34.496   27.184    1.184    1.253 
 3705   46.566    5.732    3.368   34.495   27.184    1.184    1.253 
 3706   46.740    5.727    3.368   34.488   27.185    1.184    1.253 
 3708   46.913    5.713    3.367   34.488   27.186    1.184    1.253 
 3710   47.087    5.706    3.366   34.488   27.188    1.184    1.249 
 3712   47.260    5.678    3.364   34.488   27.189    1.138    1.249 
 3714   47.434    5.642    3.362   34.488   27.193    1.114    1.249 
 3716   47.608    5.569    3.357   34.491   27.204    1.068    1.249 
 3718   47.781    5.500    3.350   34.493   27.214    1.045    1.249 
 3719   47.955    5.455    3.347   34.493   27.220    1.045    1.249 
 3720   48.129    5.408    3.342   34.493   27.225    1.045    1.244 
 3721   48.302    5.389    3.339   34.493   27.228    1.045    1.244 
 3722   48.476    5.385    3.338   34.493   27.228    1.045    1.244 
 3724   48.649    5.333    3.334   34.493   27.234    0.998    1.244 
 3725   48.823    5.304    3.331   34.493   27.238    0.998    1.244 
 3727   48.997    5.277    3.329   34.493   27.241    0.998    1.244 
 3728   49.170    5.257    3.327   34.493   27.244    0.975    1.244 
 3729   49.344    5.218    3.324   34.491   27.246    0.975    1.244 
 3731   49.691    5.073    3.312   34.491   27.254    0.975    1.239 
 3734   50.038    4.890    3.294   34.488   27.254    0.975    1.239 
 3736   50.212    4.869    3.289   34.463   27.254    0.975    1.235 
 3737   50.386    4.869    3.289   34.463   27.254    0.975    1.235 
 3738   50.559    4.869    3.289   34.463   27.255    0.975    1.235 
 3740   50.733    4.869    3.289   34.463   27.256    0.952    1.235 
 3742   50.906    4.869    3.289   34.463   27.261    0.928    1.235 
 3744   51.080    4.869    3.289   34.463   27.263    0.928    1.230 
 3746   51.254    4.884    3.289   34.463   27.263    0.905    1.230 
 3748   51.427    4.939    3.296   34.463   27.265    0.882    1.230 
 3753   51.601    4.961    3.298   34.463   27.265    0.882    1.226 
 3755   51.775    4.961    3.298   34.463   27.265    0.882    1.221 
 3757   51.948    4.961    3.298   34.463   27.265    0.882    1.221 
 3759   52.122    4.961    3.298   34.463   27.265    0.859    1.221 
 3761   52.295    4.952    3.298   34.463   27.265    0.859    1.221 
 3762   52.469    4.901    3.297   34.463   27.265    0.859    1.221 
 3763   52.643    4.842    3.291   34.463   27.268    0.859    1.221 
 3765   52.816    4.726    3.280   34.463   27.281    0.859    1.217 
 3766   52.990    4.670    3.274   34.463   27.287    0.859    1.217 
 3767   53.164    4.651    3.271   34.463   27.289    0.859    1.217 
 3769   53.337    4.528    3.261   34.463   27.297    0.859    1.217 
 3770   53.511    4.522    3.258   34.463   27.297    0.836    1.217 
 3772   53.858    4.500    3.256   34.463   27.297    0.836    1.217 
 3773   54.032    4.477    3.254   34.452   27.297    0.812    1.217 
 3775   54.205    4.350    3.245   34.451   27.297    0.766    1.212 
 3776   54.379    4.273    3.238   34.451   27.297    0.766    1.212 
 3777   54.552    4.226    3.231   34.443   27.297    0.766    1.208 
 3779   54.900    4.222    3.229   34.423   27.297    0.766    1.208 
 3781   55.073    4.220    3.228   34.417   27.297    0.766    1.208 
 3783   55.247    4.216    3.228   34.417   27.297    0.766    1.208 
 3784   55.421    4.216    3.228   34.413   27.297    0.766    1.208 
 3788   55.594    4.216    3.227   34.408   27.292    0.766    1.208 
 3792   55.768    4.216    3.227   34.406   27.292    0.836    1.208 
 3800   55.941    4.216    3.227   34.406   27.292    0.836    1.203 
 3803   56.115    4.216    3.227   34.406   27.292    0.789    1.203 
 3805   56.289    4.218    3.227   34.405   27.292    0.789    1.203 
 3806   56.462    4.218    3.227   34.405   27.292    0.789    1.203 
 3808   56.636    4.218    3.227   34.405   27.292    0.789    1.203 
 3809   56.809    4.218    3.227   34.405   27.292    0.743    1.199 
 3810   56.983    4.218    3.227   34.405   27.292    0.743    1.199 
 3811   57.157    4.213    3.227   34.405   27.292    0.719    1.199 
 3812   57.330    4.206    3.226   34.405   27.292    0.719    1.199 
 3813   57.504    4.203    3.226   34.405   27.292    0.719    1.199 
 3814   57.678    4.203    3.226   34.406   27.293    0.696    1.199 
 3815   57.851    4.200    3.226   34.406   27.293    0.696    1.199 
 3817   58.198    4.196    3.225   34.406   27.293    0.696    1.199 
 3818   58.372    4.196    3.225   34.407   27.294    0.696    1.199 
 3819   58.546    4.191    3.225   34.408   27.295    0.696    1.199 
 3820   58.719    4.168    3.223   34.409   27.298    0.696    1.199 
 3821   58.893    4.160    3.223   34.409   27.300    0.696    1.194 
 3822   59.066    4.143    3.222   34.411   27.303    0.696    1.194 
 3823   59.240    4.132    3.220   34.412   27.305    0.696    1.194 
 3825   59.414    4.118    3.219   34.412   27.307    0.696    1.194 
 3826   59.587    4.116    3.219   34.413   27.307    0.696    1.194 
 3827   59.761    4.100    3.219   34.413   27.309    0.696    1.190 
 3829   60.108    4.083    3.217   34.414   27.312    0.696    1.190 
 3831   60.282    4.073    3.216   34.414   27.313    0.696    1.190 
 3833   60.455    4.060    3.214   34.414   27.314    0.696    1.190 
 3836   60.629    4.058    3.214   34.415   27.315    0.673    1.190 
 3839   60.803    4.058    3.214   34.421   27.319    0.650    1.186 
 3842   60.976    4.058    3.214   34.422   27.320    0.673    1.186 
 3844   61.150    4.059    3.214   34.422   27.320    0.650    1.186 
 3847   61.323    4.061    3.214   34.422   27.320    0.650    1.186 
 3849   61.497    4.061    3.215   34.422   27.320    0.650    1.181 
 3851   61.671    4.061    3.215   34.422   27.320    0.650    1.181 
 3852   61.844    4.061    3.215   34.422   27.321    0.650    1.181 
 3854   62.018    4.061    3.215   34.422   27.321    0.627    1.177 
 3856   62.191    4.061    3.215   34.422   27.321    0.627    1.177 
 3857   62.365    4.061    3.215   34.422   27.321    0.627    1.177 
 3858   62.539    4.059    3.215   34.422   27.321    0.627    1.177 
 3859   62.712    4.057    3.215   34.422   27.321    0.627    1.177 
 3861   62.886    4.057    3.215   34.422   27.321    0.627    1.177 
 3862   63.233    4.057    3.215   34.423   27.321    0.603    1.177 
 3864   63.407    4.057    3.215   34.423   27.321    0.603    1.173 
 3866   63.754    4.057    3.215   34.424   27.321    0.603    1.173 
 3868   64.101    4.057    3.215   34.425   27.321    0.627    1.173 
 3870   64.275    4.060    3.215   34.425   27.321    0.627    1.173 
 3871   64.448    4.075    3.216   34.426   27.321    0.627    1.173 
 3872   64.622    4.084    3.217   34.426   27.321    0.627    1.173 
 3874   64.796    4.089    3.218   34.426   27.321    0.627    1.173 
 3875   64.969    4.091    3.218   34.426   27.321    0.627    1.173 
 3877   65.143    4.106    3.218   34.426   27.322    0.627    1.173 
 3878   65.316    4.115    3.220   34.427   27.322    0.627    1.168 
 3880   65.490    4.116    3.221   34.433   27.322    0.673    1.168 
 3882   65.664    4.117    3.221   34.433   27.322    0.650    1.168 
 3885   65.837    4.126    3.222   34.434   27.323    0.650    1.168 
 3887   66.011    4.135    3.224   34.435   27.323    0.673    1.168 
 3890   66.184    4.148    3.224   34.435   27.323    0.673    1.164 
 3893   66.358    4.171    3.226   34.435   27.323    0.673    1.164 
 3895   66.532    4.184    3.228   34.445   27.323    0.673    1.160 
 3897   66.705    4.243    3.234   34.449   27.323    0.673    1.160 
 3900   66.879    4.253    3.235   34.454   27.323    0.627    1.160 
 3902   67.052    4.409    3.247   34.455   27.325    0.627    1.160 
 3904   67.226    4.422    3.253   34.457   27.325    0.627    1.160 
 3906   67.400    4.429    3.253   34.483   27.325    0.627    1.160 
 3907   67.573    4.430    3.254   34.490   27.325    0.627    1.160 
 3910   67.747    4.476    3.255   34.493   27.329    0.650    1.155 
 3912   68.094    4.552    3.265   34.495   27.330    0.627    1.155 
 3914   68.268    4.564    3.268   34.503   27.331    0.650    1.155 
 3915   68.441    4.564    3.268   34.517   27.333    0.650    1.155 
 3917   68.615    4.634    3.273   34.517   27.334    0.650    1.155 
 3918   68.789    4.641    3.275   34.519   27.334    0.650    1.155 
 3919   68.962    4.647    3.276   34.522   27.335    0.650    1.155 
 3921   69.136    4.761    3.286   34.524   27.336    0.650    1.155 
 3923   69.483    4.802    3.291   34.537   27.342    0.650    1.155 
 3925   69.657    4.806    3.293   34.554   27.344    0.650    1.151 
 3926   69.830    4.806    3.293   34.554   27.344    0.650    1.151 
 3928   70.004    4.807    3.293   34.554   27.344    0.650    1.151 
 3930   70.177    4.808    3.293   34.554   27.344    0.650    1.151 
 3931   70.351    4.808    3.293   34.555   27.344    0.650    1.151 
 3933   70.525    4.808    3.293   34.556   27.345    0.650    1.151 
 3935   70.698    4.808    3.293   34.556   27.345    0.650    1.151 
 3937   70.872    4.807    3.294   34.559   27.348    0.673    1.151 
 3940   71.045    4.806    3.294   34.561   27.350    0.719    1.151 
 3943   71.219    4.805    3.294   34.565   27.353    0.719    1.147 
 3946   71.393    4.804    3.294   34.565   27.353    0.719    1.147 
 3949   71.566    4.804    3.294   34.565   27.353    0.719    1.147 
 3952   71.740    4.802    3.293   34.565   27.353    0.696    1.147 
 3955   71.913    4.800    3.293   34.565   27.353    0.673    1.147 
 3956   72.087    4.796    3.293   34.565   27.353    0.673    1.147 
 3959   72.261    4.796    3.293   34.565   27.354    0.673    1.143 
 3960   72.434    4.796    3.293   34.565   27.354    0.650    1.143 
 3961   72.608    4.796    3.293   34.566   27.354    0.650    1.143 
 3963   72.781    4.796    3.293   34.567   27.354    0.627    1.143 
 3965   72.955    4.796    3.293   34.568   27.355    0.650    1.143 
 3966   73.129    4.796    3.293   34.569   27.355    0.650    1.143 
 3967   73.302    4.816    3.293   34.569   27.355    0.650    1.143 
 3969   73.649    4.918    3.305   34.577   27.356    0.650    1.143 
 3970   73.823    4.920    3.306   34.583   27.356    0.650    1.143 
 3971   73.997    4.923    3.306   34.586   27.356    0.650    1.143 
 3973   74.170    4.989    3.313   34.596   27.357    0.650    1.143 
 3974   74.344    4.992    3.314   34.604   27.363    0.650    1.143 
 3975   74.517    4.992    3.315   34.615   27.371    0.650    1.143 
 3976   74.691    4.992    3.315   34.615   27.371    0.650    1.143 
 3978   74.865    4.992    3.315   34.615   27.371    0.650    1.143 
 3979   75.038    4.992    3.315   34.615   27.371    0.650    1.143 
 3980   75.212    4.992    3.315   34.615   27.371    0.650    1.143 
 3982   75.385    4.992    3.315   34.615   27.371    0.673    1.138 
 3984   75.559    4.992    3.315   34.616   27.372    0.673    1.138 
 3985   75.733    4.992    3.315   34.616   27.372    0.673    1.138 
 3986   75.906    4.989    3.315   34.616   27.372    0.650    1.138 
 3989   76.080    4.951    3.314   34.616   27.376    0.673    1.138 
 3990   76.253    4.937    3.311   34.616   27.378    0.696    1.138 
 3993   76.427    4.927    3.310   34.616   27.379    0.696    1.138 
 3995   76.601    4.926    3.310   34.615   27.379    0.696    1.138 
 3998   76.774    4.916    3.309   34.615   27.380    0.719    1.138 
 4001   76.948    4.912    3.308   34.615   27.380    0.719    1.138 
 4003   77.121    4.908    3.308   34.615   27.381    0.719    1.134 
 4006   77.295    4.906    3.308   34.616   27.382    0.719    1.134 
 4008   77.469    4.897    3.307   34.618   27.384    0.719    1.134 
 4009   77.642    4.893    3.306   34.620   27.386    0.650    1.134 
 4011   77.816    4.893    3.306   34.620   27.386    0.650    1.134 
 4012   77.989    4.893    3.306   34.620   27.386    0.650    1.134 
 4014   78.163    4.893    3.306   34.620   27.386    0.650    1.134 
 4015   78.337    4.893    3.306   34.620   27.387    0.650    1.134 
 4016   78.510    4.892    3.306   34.619   27.387    0.650    1.134 
 4018   78.684    4.892    3.306   34.619   27.387    0.627    1.134 
 4019   78.857    4.892    3.306   34.620   27.387    0.650    1.134 
 4020   79.031    4.893    3.307   34.620   27.387    0.650    1.134 
 4021   79.205    4.894    3.307   34.620   27.387    0.650    1.134 
 4023   79.378    4.895    3.307   34.621   27.387    0.650    1.134 
 4024   79.552    4.904    3.308   34.621   27.387    0.627    1.134 
 4025   79.725    4.906    3.308   34.622   27.387    0.650    1.130 
 4026   79.899    4.908    3.308   34.623   27.387    0.627    1.130 
 4027   80.073    4.911    3.309   34.623   27.387    0.650    1.130 
 4030   80.420    4.979    3.314   34.627   27.387    0.627    1.130 
 4032   80.593    4.979    3.317   34.641   27.393    0.650    1.130 
 4033   80.767    4.979    3.317   34.643   27.395    0.650    1.130 
 4034   80.941    4.979    3.317   34.645   27.395    0.650    1.130 
 4036   81.114    4.993    3.318   34.646   27.396    0.650    1.130 
 4037   81.288    4.996    3.318   34.649   27.396    0.627    1.130 
 4039   81.461    5.009    3.319   34.649   27.396    0.650    1.130 
 4040   81.635    5.016    3.320   34.649   27.396    0.650    1.130 
 4041   81.809    5.016    3.321   34.651   27.397    0.650    1.130 
 4043   81.982    5.021    3.321   34.651   27.398    0.627    1.130 
 4045   82.156    5.017    3.321   34.655   27.399    0.650    1.130 
 4046   82.329    5.016    3.321   34.655   27.399    0.673    1.130 
 4048   82.503    5.017    3.321   34.655   27.400    0.650    1.126 
 4050   82.677    5.024    3.322   34.656   27.400    0.650    1.126 
 4052   82.850    5.028    3.322   34.656   27.400    0.627    1.126 
 4053   83.024    5.032    3.322   34.656   27.400    0.627    1.126 
 4055   83.197    5.034    3.323   34.659   27.400    0.627    1.126 
 4058   83.371    5.049    3.324   34.660   27.400    0.603    1.126 
 4062   83.545    5.105    3.330   34.667   27.401    0.580    1.126 
 4064   83.718    5.108    3.331   34.671   27.402    0.580    1.126 
 4069   83.892    5.110    3.331   34.673   27.404    0.580    1.122 
 4071   84.065    5.112    3.331   34.675   27.404    0.580    1.122 
 4073   84.239    5.119    3.332   34.675   27.404    0.580    1.126 
 4076   84.413    5.125    3.333   34.676   27.405    0.557    1.126 
 4078   84.586    5.128    3.333   34.677   27.405    0.557    1.122 
 4079   84.760    5.129    3.333   34.680   27.406    0.557    1.122 
 4081   84.933    5.132    3.334   34.680   27.406    0.534    1.126 
 4082   85.107    5.136    3.334   34.680   27.407    0.534    1.126 
 4083   85.280    5.136    3.334   34.681   27.407    0.510    1.122 
 4084   85.454    5.141    3.335   34.684   27.407    0.510    1.122 
 4085   85.628    5.157    3.336   34.686   27.408    0.510    1.122 
 4087   85.801    5.162    3.337   34.687   27.409    0.510    1.122 
 4088   85.975    5.173    3.338   34.687   27.409    0.510    1.122 
 4089   86.148    5.180    3.339   34.692   27.410    0.510    1.122 
 4090   86.322    5.180    3.339   34.692   27.410    0.487    1.122 
 4091   86.496    5.181    3.340   34.700   27.416    0.487    1.122 
 4092   86.669    5.181    3.340   34.700   27.416    0.487    1.122 
 4093   86.843    5.181    3.340   34.700   27.416    0.487    1.122 
 4095   87.016    5.182    3.340   34.700   27.416    0.487    1.122 
 4096   87.190    5.182    3.340   34.700   27.416    0.487    1.122 
 4097   87.364    5.182    3.340   34.700   27.416    0.487    1.122 
 4098   87.537    5.182    3.340   34.700   27.416    0.487    1.122 
 4099   87.711    5.182    3.340   34.700   27.416    0.487    1.122 
 4100   87.884    5.182    3.340   34.700   27.416    0.487    1.122 
 4102   88.232    5.182    3.340   34.700   27.416    0.487    1.122 
 4105   88.405    5.182    3.340   34.700   27.416    0.487    1.122 
 4107   88.579    5.182    3.340   34.700   27.416    0.487    1.122 
 4108   88.752    5.182    3.340   34.700   27.416    0.487    1.122 
 4109   88.926    5.182    3.340   34.700   27.416    0.487    1.117 
 4111   89.100    5.182    3.340   34.700   27.416    0.487    1.117 
 4113   89.273    5.182    3.340   34.700   27.416    0.487    1.117 
 4114   89.447    5.182    3.340   34.700   27.416    0.487    1.117 
 4116   89.620    5.181    3.340   34.700   27.416    0.487    1.117 
 4119   89.794    5.180    3.340   34.700   27.417    0.487    1.117 
 4121   89.967    5.179    3.340   34.700   27.417    0.464    1.117 
 4123   90.141    5.178    3.340   34.700   27.417    0.464    1.117 
 4126   90.315    5.171    3.339   34.700   27.417    0.487    1.117 
 4127   90.488    5.171    3.339   34.700   27.417    0.487    1.117 
 4129   90.662    5.171    3.339   34.700   27.417    0.487    1.117 
 4131   90.835    5.171    3.339   34.700   27.417    0.487    1.117 
 4133   91.009    5.171    3.339   34.700   27.418    0.464    1.117 
 4134   91.183    5.171    3.339   34.701   27.419    0.487    1.117 
 4136   91.356    5.175    3.339   34.702   27.419    0.464    1.117 
 4137   91.530    5.177    3.339   34.703   27.419    0.464    1.117 
 4139   91.703    5.177    3.340   34.703   27.419    0.464    1.117 
 4140   91.877    5.177    3.340   34.703   27.419    0.464    1.117 
 4141   92.051    5.177    3.340   34.703   27.419    0.464    1.117 
 4143   92.224    5.177    3.340   34.703   27.419    0.487    1.113 
 4144   92.571    5.177    3.340   34.703   27.419    0.510    1.113 
 4146   92.918    5.177    3.340   34.703   27.419    0.487    1.113 
 4147   93.092    5.177    3.340   34.703   27.419    0.487    1.113 
 4148   93.266    5.175    3.340   34.703   27.419    0.487    1.113 
 4149   93.439    5.175    3.340   34.703   27.419    0.487    1.113 
 4151   93.786    5.050    3.333   34.703   27.434    0.487    1.113 
 4153   94.134    4.923    3.318   34.703   27.438    0.487    1.113 
 4155   94.307    4.892    3.314   34.698   27.438    0.487    1.113 
 4156   94.481    4.890    3.313   34.691   27.438    0.487    1.113 
 4157   94.654    4.876    3.312   34.688   27.438    0.487    1.113 
 4158   94.828    4.873    3.311   34.683   27.438    0.487    1.113 
 4159   95.001    4.873    3.311   34.682   27.438    0.487    1.113 
 4162   95.175    4.863    3.310   34.682   27.438    0.487    1.109 
 4163   95.349    4.862    3.310   34.682   27.438    0.487    1.109 
 4166   95.522    4.861    3.310   34.681   27.438    0.487    1.109 
 4169   95.696    4.860    3.309   34.680   27.438    0.487    1.109 
 4172   95.869    4.858    3.309   34.680   27.438    0.487    1.109 
 4176   96.043    4.854    3.309   34.678   27.438    0.487    1.109 
 4179   96.217    4.849    3.308   34.678   27.438    0.510    1.109 
 4184   96.390    4.846    3.308   34.676   27.438    0.487    1.109 
 4186   96.564    4.846    3.308   34.675   27.438    0.464    1.109 
 4187   96.737    4.846    3.308   34.675   27.438    0.487    1.109 
 4188   96.911    4.846    3.308   34.675   27.438    0.487    1.109 
 4190   97.085    4.845    3.308   34.675   27.438    0.487    1.109 
 4191   97.258    4.843    3.308   34.675   27.438    0.487    1.109 
 4193   97.432    4.841    3.308   34.675   27.438    0.510    1.109 
 4194   97.605    4.840    3.308   34.676   27.438    0.510    1.109 
 4195   97.779    4.839    3.307   34.678   27.438    0.487    1.109 
 4196   97.952    4.839    3.307   34.678   27.438    0.487    1.109 
 4197   98.126    4.839    3.307   34.680   27.440    0.487    1.109 
 4198   98.300    4.839    3.307   34.680   27.441    0.487    1.109 
 4199   98.473    4.826    3.307   34.682   27.443    0.487    1.109 
 4201   98.647    4.806    3.306   34.682   27.446    0.464    1.109 
 4202   98.994    4.793    3.304   34.682   27.447    0.464    1.109 
 4204   99.168    4.792    3.304   34.682   27.448    0.464    1.109 
 4206   99.515    4.792    3.304   34.682   27.448    0.464    1.109 
 4207   99.688    4.792    3.304   34.682   27.448    0.464    1.109 
 4209   99.862    4.792    3.304   34.683   27.448    0.464    1.109 
 4210  100.035    4.792    3.304   34.683   27.448    0.464    1.109 
 4212  100.209    4.792    3.304   34.683   27.448    0.464    1.109 
 4213  100.383    4.792    3.304   34.683   27.448    0.464    1.109 
 4216  100.556    4.792    3.304   34.683   27.448    0.464    1.105 
 4219  100.730    4.792    3.304   34.683   27.448    0.464    1.105 
 4221  100.903    4.792    3.304   34.683   27.448    0.464    1.105 
 4224  101.077    4.792    3.304   34.683   27.448    0.441    1.105 
 4227  101.250    4.800    3.304   34.683   27.448    0.441    1.105 
 4228  101.424    4.800    3.305   34.685   27.448    0.441    1.105 
 4229  101.598    4.800    3.305   34.685   27.449    0.417    1.105 
 4231  101.771    4.800    3.305   34.685   27.449    0.417    1.105 
 4233  101.945    4.800    3.305   34.685   27.449    0.417    1.105 
 4235  102.292    4.800    3.305   34.685   27.449    0.417    1.105 
 4238  102.813    4.799    3.305   34.685   27.449    0.394    1.105 
 4240  102.986    4.799    3.305   34.685   27.449    0.417    1.101 
 4241  103.160    4.799    3.305   34.685   27.449    0.417    1.105 
 4243  103.333    4.799    3.305   34.685   27.449    0.417    1.105 
 4244  103.507    4.799    3.305   34.685   27.449    0.417    1.105 
 4245  103.681    4.799    3.305   34.685   27.449    0.417    1.101 
 4246  103.854    4.799    3.305   34.685   27.449    0.417    1.101 
 4247  104.028    4.799    3.305   34.685   27.449    0.417    1.101 
 4248  104.201    4.799    3.305   34.685   27.449    0.417    1.101 
 4250  104.375    4.802    3.306   34.686   27.449    0.417    1.101 
 4251  104.549    4.805    3.306   34.686   27.449    0.417    1.101 
 4253  104.722    4.810    3.306   34.690   27.450    0.417    1.101 
 4255  104.896    4.834    3.308   34.693   27.451    0.417    1.101 
 4257  105.069    4.842    3.310   34.693   27.451    0.441    1.101 
 4259  105.243    4.843    3.310   34.694   27.452    0.441    1.101 
 4263  105.416    4.843    3.310   34.696   27.453    0.441    1.101 
 4266  105.590    4.845    3.310   34.697   27.453    0.441    1.101 
 4269  105.764    4.846    3.310   34.698   27.453    0.441    1.101 
 4272  105.937    4.850    3.311   34.700   27.455    0.441    1.101 
 4273  106.111    4.850    3.311   34.700   27.455    0.417    1.101 
 4275  106.284    4.850    3.311   34.700   27.455    0.417    1.101 
 4277  106.631    4.850    3.311   34.700   27.455    0.417    1.101 
 4278  106.805    4.850    3.311   34.700   27.455    0.417    1.101 
 4280  107.152    4.850    3.311   34.700   27.455    0.417    1.101 
 4281  107.326    4.850    3.311   34.700   27.455    0.417    1.101 
 4282  107.499    4.850    3.311   34.701   27.455    0.417    1.101 
 4283  107.673    4.848    3.311   34.702   27.456    0.417    1.101 
 4284  107.846    4.846    3.312   34.706   27.460    0.394    1.101 
 4285  108.194    4.845    3.312   34.707   27.461    0.394    1.101 
 4286  108.367    4.845    3.312   34.708   27.462    0.417    1.101 
 4287  108.714    4.845    3.312   34.708   27.462    0.417    1.101 
 4288  108.888    4.844    3.312   34.709   27.462    0.417    1.101 
 4289  109.235    4.843    3.311   34.709   27.462    0.417    1.101 
 4290  109.409    4.842    3.311   34.709   27.463    0.394    1.101 
 4291  109.582    4.841    3.311   34.709   27.463    0.394    1.101 
 4292  109.756    4.841    3.311   34.709   27.463    0.394    1.101 
 4293  109.929    4.840    3.311   34.709   27.463    0.394    1.101 
 4294  110.277    4.840    3.311   34.709   27.463    0.394    1.097 
 4295  110.450    4.839    3.311   34.709   27.463    0.394    1.097 
 4296  110.624    4.839    3.311   34.709   27.463    0.417    1.097 
 4298  110.797    4.837    3.311   34.709   27.463    0.394    1.097 
 4299  110.971    4.837    3.311   34.709   27.463    0.441    1.097 
 4322  111.144    4.845    3.311   34.709   27.463    0.464    1.093 
 4324  111.318    4.845    3.311   34.710   27.463    0.464    1.093 
 4326  111.492    4.844    3.311   34.710   27.463    0.441    1.093 
 4327  111.665    4.843    3.311   34.711   27.465    0.441    1.093 
 4328  111.839    4.841    3.311   34.712   27.465    0.441    1.093 
 4329  112.012    4.836    3.311   34.712   27.466    0.441    1.093 
 4330  112.359    4.833    3.311   34.715   27.469    0.441    1.093 
 4331  112.533    4.831    3.311   34.715   27.469    0.441    1.093 
 4332  112.707    4.830    3.311   34.717   27.470    0.441    1.093 
 4333  112.880    4.824    3.311   34.718   27.472    0.441    1.093 
 4334  113.054    4.824    3.311   34.723   27.476    0.441    1.093 
 4335  113.401    4.821    3.310   34.724   27.477    0.441    1.093 
 4336  113.574    4.810    3.310   34.724   27.478    0.441    1.097 
 4337  113.748    4.802    3.309   34.724   27.479    0.441    1.097 
 4338  113.922    4.796    3.309   34.724   27.480    0.417    1.097 
 4339  114.095    4.781    3.308   34.724   27.482    0.417    1.097 
 4340  114.269    4.774    3.307   34.724   27.482    0.417    1.097 
 4341  114.616    4.772    3.307   34.724   27.483    0.417    1.093 
 4342  114.789    4.766    3.306   34.724   27.483    0.417    1.093 
 4344  115.137    4.750    3.305   34.725   27.483    0.417    1.093 
 4346  115.310    4.721    3.303   34.727   27.484    0.417    1.093 
 4348  115.484    4.630    3.294   34.727   27.486    0.417    1.093 
 4349  115.657    4.626    3.293   34.729   27.487    0.417    1.093 
 4352  115.831    4.618    3.292   34.729   27.487    0.441    1.093 
 4355  116.004    4.614    3.291   34.730   27.487    0.441    1.093 
 4359  116.178    4.614    3.291   34.730   27.487    0.441    1.093 
 4366  116.352    4.615    3.291   34.730   27.487    0.441    1.093 
 4368  116.525    4.751    3.296   34.730   27.487    0.441    1.093 
 4371  116.699    4.839    3.313   34.730   27.487    0.441    1.093 
 4372  116.872    4.850    3.314   34.737   27.488    0.441    1.093 
 4374  117.046    4.850    3.315   34.741   27.489    0.441    1.093 
 4376  117.219    4.850    3.315   34.741   27.489    0.441    1.093 
 4377  117.393    4.850    3.315   34.741   27.489    0.441    1.093 
 4378  117.567    4.850    3.315   34.741   27.489    0.441    1.093 
 4379  117.740    4.850    3.315   34.741   27.489    0.441    1.093 
 4381  117.914    4.850    3.315   34.741   27.489    0.441    1.093 
 4382  118.087    4.850    3.315   34.741   27.489    0.441    1.093 
 4383  118.434    4.841    3.315   34.741   27.489    0.417    1.093 
 4385  118.608    4.834    3.314   34.741   27.489    0.417    1.093 
 4386  118.781    4.831    3.314   34.741   27.489    0.417    1.093 
 4387  118.955    4.809    3.312   34.741   27.492    0.417    1.093 
 4388  119.129    4.799    3.311   34.741   27.493    0.417    1.093 
 4390  119.476    4.728    3.306   34.741   27.501    0.417    1.093 
 4391  119.649    4.649    3.300   34.741   27.502    0.417    1.093 
 4393  119.823    4.590    3.291   34.732   27.502    0.417    1.093 
 4394  120.170    4.590    3.291   34.732   27.502    0.417    1.093 
 4396  120.344    4.589    3.290   34.722   27.502    0.417    1.093 
 4398  120.517    4.589    3.290   34.722   27.502    0.394    1.093 
 4399  120.691    4.589    3.290   34.722   27.502    0.394    1.093 
 4400  120.864    4.588    3.290   34.722   27.502    0.394    1.089 
 4402  121.038    4.588    3.290   34.722   27.502    0.417    1.093 
 4403  121.211    4.588    3.290   34.722   27.502    0.417    1.089 
 4404  121.559    4.588    3.290   34.722   27.502    0.417    1.089 
 4407  121.732    4.588    3.290   34.722   27.502    0.417    1.089 
 4408  121.906    4.588    3.290   34.722   27.502    0.417    1.089 
 4409  122.079    4.587    3.290   34.722   27.502    0.417    1.089 
 4411  122.253    4.587    3.290   34.722   27.502    0.417    1.089 
 4412  122.426    4.587    3.290   34.722   27.502    0.417    1.089 
 4413  122.600    4.587    3.290   34.722   27.502    0.417    1.089 
 4415  122.773    4.587    3.290   34.722   27.502    0.417    1.089 
 4416  122.947    4.587    3.290   34.721   27.502    0.417    1.089 
 4419  123.121    4.568    3.289   34.721   27.503    0.417    1.089 
 4420  123.294    4.527    3.286   34.721   27.506    0.394    1.089 
 4422  123.468    4.503    3.282   34.716   27.506    0.394    1.089 
 4424  123.641    4.503    3.282   34.716   27.506    0.394    1.089 
 4425  123.815    4.503    3.282   34.716   27.506    0.371    1.089 
 4426  123.988    4.503    3.282   34.716   27.506    0.371    1.089 
 4429  124.162    4.503    3.282   34.716   27.506    0.371    1.089 
 4430  124.336    4.503    3.282   34.716   27.507    0.371    1.089 
 4432  124.509    4.499    3.281   34.716   27.507    0.371    1.089 
 4434  124.683    4.494    3.281   34.716   27.507    0.371    1.089 
 4435  124.856    4.494    3.281   34.716   27.507    0.371    1.089 
 4436  125.030    4.494    3.281   34.716   27.507    0.371    1.089 
 4438  125.203    4.494    3.281   34.716   27.507    0.394    1.089 
 4439  125.377    4.494    3.281   34.715   27.507    0.394    1.089 
 4441  125.551    4.475    3.281   34.715   27.509    0.394    1.089 
 4442  125.724    4.448    3.278   34.715   27.512    0.394    1.089 
 4443  125.898    4.439    3.277   34.714   27.512    0.394    1.089 
 4444  126.071    4.428    3.276   34.713   27.512    0.394    1.089 
 4446  126.418    4.419    3.275   34.713   27.513    0.417    1.089 
 4449  126.592    4.401    3.273   34.713   27.515    0.417    1.089 
 4451  126.765    4.385    3.272   34.713   27.516    0.394    1.089 
 4452  126.939    4.380    3.271   34.713   27.516    0.417    1.089 
 4454  127.113    4.376    3.271   34.712   27.516    0.417    1.089 
 4456  127.286    4.359    3.269   34.712   27.516    0.417    1.089 
 4459  127.460    4.350    3.268   34.710   27.516    0.417    1.085 
 4460  127.633    4.350    3.268   34.710   27.516    0.417    1.089 
 4464  127.807    4.350    3.268   34.710   27.516    0.394    1.085 
 4466  127.980    4.350    3.268   34.710   27.516    0.348    1.085 
 4469  128.154    4.352    3.268   34.707   27.516    0.394    1.085 
 4471  128.327    4.353    3.268   34.707   27.516    0.394    1.085 
 4472  128.501    4.358    3.268   34.707   27.516    0.394    1.085 
 4475  128.675    4.371    3.269   34.707   27.516    0.394    1.085 
 4476  128.848    4.374    3.270   34.707   27.516    0.394    1.085 
 4477  129.022    4.374    3.270   34.707   27.516    0.394    1.085 
 4479  129.195    4.375    3.270   34.707   27.516    0.394    1.085 
 4480  129.369    4.375    3.270   34.707   27.516    0.394    1.085 
 4482  129.542    4.376    3.270   34.707   27.516    0.394    1.085 
 4483  129.716    4.376    3.270   34.707   27.516    0.394    1.085 
 4485  130.063    4.377    3.270   34.707   27.516    0.394    1.085 
 4486  130.237    4.398    3.272   34.707   27.516    0.394    1.085 
 4488  130.410    4.399    3.273   34.715   27.517    0.394    1.085 
 4489  130.584    4.399    3.273   34.715   27.517    0.394    1.085 
 4491  130.757    4.399    3.273   34.715   27.517    0.394    1.085 
 4492  130.931    4.399    3.273   34.715   27.517    0.394    1.085 
 4493  131.104    4.399    3.273   34.715   27.517    0.394    1.085 
 4494  131.278    4.399    3.273   34.715   27.517    0.394    1.085 
 4496  131.452    4.399    3.273   34.715   27.517    0.394    1.085 
 4497  131.625    4.399    3.273   34.715   27.517    0.394    1.085 
 4499  131.972    4.396    3.273   34.716   27.517    0.394    1.085 
 4503  132.319    4.396    3.273   34.716   27.517    0.417    1.085 
 4505  132.493    4.396    3.273   34.718   27.517    0.417    1.081 
 4508  132.666    4.396    3.273   34.718   27.517    0.417    1.081 
 4511  132.840    4.420    3.273   34.718   27.517    0.417    1.081 
 4513  133.014    4.468    3.280   34.718   27.517    0.394    1.081 
 4515  133.187    4.561    3.287   34.724   27.517    0.417    1.081 
 4517  133.361    4.595    3.292   34.724   27.517    0.417    1.081 
 4518  133.534    4.624    3.294   34.731   27.518    0.417    1.081 
 4519  133.708    4.630    3.296   34.741   27.518    0.417    1.081 
 4521  133.881    4.662    3.299   34.742   27.519    0.394    1.081 
 4522  134.055    4.671    3.300   34.745   27.519    0.394    1.081 
 4524  134.228    4.680    3.302   34.757   27.519    0.394    1.081 
 4525  134.402    4.681    3.302   34.757   27.519    0.394    1.081 
 4527  134.576    4.681    3.302   34.757   27.519    0.394    1.081 
 4528  134.749    4.681    3.302   34.757   27.519    0.394    1.081 
 4530  134.923    4.681    3.302   34.757   27.519    0.394    1.081 
 4531  135.096    4.681    3.302   34.757   27.519    0.394    1.081 
 4532  135.270    4.681    3.302   34.757   27.519    0.394    1.081 
 4533  135.443    4.681    3.302   34.757   27.519    0.394    1.081 
 4535  135.790    4.681    3.302   34.757   27.519    0.394    1.081 
 4537  135.964    4.680    3.302   34.757   27.520    0.417    1.081 
 4538  136.138    4.680    3.302   34.757   27.520    0.394    1.081 
 4540  136.311    4.680    3.302   34.757   27.520    0.417    1.081 
 4542  136.485    4.680    3.302   34.757   27.520    0.417    1.081 
 4543  136.658    4.680    3.302   34.757   27.520    0.394    1.081 
 4544  136.832    4.680    3.302   34.757   27.520    0.394    1.081 
 4546  137.179    4.680    3.302   34.758   27.520    0.417    1.081 
 4548  137.352    4.685    3.303   34.763   27.524    0.417    1.081 
 4550  137.526    4.687    3.304   34.772   27.531    0.417    1.081 
 4551  137.700    4.687    3.304   34.772   27.531    0.417    1.081 
 4552  137.873    4.687    3.304   34.772   27.531    0.417    1.081 
 4554  138.047    4.687    3.304   34.772   27.531    0.371    1.081 
 4555  138.220    4.687    3.304   34.772   27.531    0.371    1.081 
 4556  138.394    4.687    3.304   34.773   27.531    0.371    1.081 
 4557  138.567    4.687    3.304   34.773   27.531    0.348    1.081 
 4559  138.741    4.687    3.304   34.773   27.531    0.348    1.081 
 4560  138.914    4.685    3.304   34.774   27.532    0.348    1.081 
 4561  139.088    4.679    3.304   34.778   27.536    0.348    1.081 
 4563  139.262    4.670    3.303   34.780   27.539    0.371    1.081 
 4564  139.435    4.667    3.303   34.780   27.539    0.371    1.081 
 4565  139.609    4.664    3.303   34.780   27.540    0.371    1.081 
 4567  139.782    4.664    3.303   34.780   27.540    0.348    1.077 
 4568  139.956    4.664    3.303   34.780   27.540    0.348    1.077 
 4570  140.303    4.664    3.303   34.781   27.540    0.348    1.077 
 4573  140.476    4.664    3.303   34.781   27.540    0.371    1.077 
 4575  140.650    4.664    3.303   34.783   27.540    0.371    1.077 
 4576  140.823    4.664    3.303   34.783   27.540    0.371    1.077 
 4577  140.997    4.664    3.303   34.783   27.540    0.371    1.077 
 4581  141.171    4.666    3.303   34.783   27.540    0.371    1.077 
 4584  141.344    4.667    3.303   34.783   27.540    0.371    1.077 
 4589  141.518    4.667    3.303   34.783   27.540    0.417    1.077 
 4593  141.691    4.668    3.303   34.783   27.541    0.394    1.077 
 4596  141.865    4.672    3.303   34.783   27.541    0.394    1.077 
 4600  142.038    4.675    3.304   34.783   27.541    0.394    1.073 
 4602  142.212    4.675    3.304   34.783   27.541    0.394    1.077 
 4603  142.385    4.675    3.304   34.783   27.541    0.417    1.077 
 4604  142.559    4.675    3.304   34.783   27.541    0.417    1.077 
 4606  142.733    4.675    3.304   34.783   27.541    0.417    1.073 
 4608  142.906    4.675    3.304   34.783   27.541    0.394    1.073 
 4609  143.080    4.672    3.304   34.783   27.541    0.394    1.073 
 4610  143.253    4.668    3.304   34.783   27.541    0.394    1.073 
 4611  143.600    4.663    3.303   34.783   27.542    0.394    1.073 
 4613  143.774    4.658    3.303   34.783   27.542    0.394    1.073 
 4614  143.947    4.658    3.303   34.783   27.542    0.394    1.073 
 4615  144.121    4.656    3.303   34.783   27.542    0.394    1.073 
 4616  144.468    4.655    3.302   34.783   27.543    0.394    1.073 
 4617  144.642    4.654    3.302   34.783   27.543    0.394    1.073 
 4619  144.989    4.653    3.302   34.783   27.543    0.394    1.073 
 4621  145.336    4.653    3.302   34.784   27.543    0.394    1.073 
 4622  145.509    4.653    3.302   34.784   27.544    0.394    1.073 
 4623  145.683    4.652    3.302   34.784   27.544    0.394    1.073 
 4624  145.856    4.650    3.302   34.783   27.544    0.371    1.073 
 4625  146.030    4.646    3.302   34.783   27.544    0.371    1.073 
 4626  146.203    4.641    3.302   34.782   27.544    0.371    1.073 
 4627  146.377    4.640    3.301   34.782   27.544    0.371    1.073 
 4628  146.724    4.639    3.301   34.782   27.544    0.371    1.073 
 4631  147.071    4.637    3.301   34.783   27.545    0.371    1.073 
 4633  147.245    4.637    3.301   34.784   27.545    0.371    1.073 
 4634  147.418    4.636    3.301   34.784   27.546    0.371    1.073 
 4635  147.592    4.631    3.300   34.784   27.546    0.371    1.073 
 4638  147.765    4.620    3.300   34.784   27.546    0.394    1.073 
 4642  147.939    4.620    3.299   34.784   27.546    0.394    1.069 
 4646  148.112    4.620    3.299   34.783   27.547    0.394    1.069 
 4655  148.286    4.618    3.299   34.782   27.547    0.394    1.069 
 4658  148.460    4.608    3.299   34.781   27.547    0.394    1.069 
 4660  148.633    4.581    3.296   34.779   27.548    0.394    1.069 
 4663  148.807    4.558    3.295   34.779   27.550    0.394    1.069 
 4664  148.980    4.525    3.292   34.779   27.554    0.371    1.069 
 4666  149.327    4.513    3.289   34.778   27.554    0.371    1.069 
 4667  149.501    4.511    3.289   34.778   27.554    0.371    1.069 
 4669  149.848    4.510    3.289   34.778   27.554    0.371    1.069 
 4670  150.021    4.510    3.289   34.777   27.554    0.371    1.069 
 4672  150.369    4.509    3.289   34.777   27.554    0.371    1.069 
 4673  150.542    4.509    3.289   34.777   27.554    0.371    1.069 
 4674  150.716    4.509    3.289   34.777   27.554    0.394    1.069 
 4675  150.889    4.509    3.289   34.777   27.554    0.394    1.069 
 4676  151.063    4.508    3.289   34.777   27.554    0.394    1.069 
 4677  151.410    4.508    3.289   34.777   27.555    0.371    1.069 
 4678  151.583    4.508    3.289   34.777   27.555    0.371    1.069 
 4680  151.930    4.506    3.288   34.777   27.555    0.394    1.069 
 4681  152.104    4.506    3.288   34.777   27.555    0.394    1.069 
 4682  152.278    4.506    3.288   34.777   27.555    0.394    1.069 
 4683  152.451    4.506    3.288   34.777   27.555    0.394    1.069 
 4684  152.625    4.496    3.288   34.777   27.555    0.394    1.069 
 4685  152.798    4.459    3.285   34.776   27.556    0.394    1.069 
 4686  152.972    4.442    3.283   34.768   27.559    0.394    1.069 
 4688  153.145    4.311    3.274   34.768   27.565    0.394    1.069 
 4689  153.319    4.160    3.265   34.768   27.566    0.394    1.069 
 4690  153.492    4.100    3.253   34.768   27.566    0.394    1.069 
 4692  153.666    4.090    3.249   34.747   27.566    0.371    1.069 
 4693  153.839    4.089    3.249   34.746   27.566    0.371    1.069 
 4696  154.013    4.089    3.249   34.746   27.566    0.371    1.069 
 4702  154.186    4.090    3.249   34.745   27.566    0.394    1.065 
 4715  154.360    4.102    3.249   34.741   27.566    0.394    1.065 
 4718  154.534    4.101    3.249   34.736   27.566    0.417    1.065 
 4719  154.707    4.094    3.249   34.735   27.566    0.417    1.065 
 4721  155.054    4.092    3.248   34.735   27.566    0.394    1.065 
 4725  155.401    4.088    3.248   34.735   27.566    0.371    1.065 
 4726  155.575    4.088    3.248   34.735   27.565    0.394    1.065 
 4727  155.922    4.088    3.248   34.733   27.565    0.394    1.065 
 4728  156.095    4.087    3.248   34.733   27.564    0.371    1.065 
 4729  156.442    4.087    3.248   34.731   27.563    0.371    1.065 
 4731  156.790    4.086    3.247   34.725   27.559    0.371    1.065 
 4732  156.963    4.086    3.247   34.725   27.559    0.371    1.065 
 4733  157.137    4.085    3.247   34.725   27.559    0.348    1.065 
 4734  157.310    4.085    3.247   34.725   27.559    0.348    1.065 
 4735  157.484    4.085    3.247   34.725   27.558    0.348    1.065 
 4736  157.831    4.085    3.247   34.725   27.558    0.348    1.065 
 4737  158.004    4.085    3.247   34.725   27.558    0.348    1.065 
 4738  158.178    4.085    3.247   34.725   27.558    0.348    1.065 
 4739  158.525    4.085    3.247   34.725   27.558    0.348    1.065 
 4741  158.698    4.085    3.247   34.725   27.558    0.348    1.065 
 4742  158.872    4.085    3.247   34.725   27.558    0.371    1.065 
 4743  159.046    4.085    3.247   34.725   27.558    0.371    1.065 
 4744  159.219    4.085    3.247   34.725   27.558    0.348    1.065 
 4745  159.393    4.086    3.247   34.725   27.558    0.371    1.065 
 4747  159.566    4.086    3.247   34.725   27.558    0.371    1.065 
 4748  159.740    4.086    3.247   34.725   27.558    0.371    1.065 
 4751  159.913    4.086    3.247   34.725   27.558    0.348    1.065 
 4758  160.087    4.088    3.248   34.731   27.563    0.348    1.065 
 4768  160.260    4.089    3.248   34.731   27.563    0.371    1.061 
 4771  160.434    4.089    3.248   34.731   27.563    0.371    1.061 
 4773  160.607    4.089    3.248   34.731   27.563    0.394    1.061 
 4774  160.781    4.089    3.248   34.731   27.563    0.394    1.061 
 4775  160.954    4.089    3.248   34.731   27.563    0.371    1.061 
 4777  161.128    4.089    3.248   34.731   27.563    0.371    1.061 
 4778  161.302    4.089    3.248   34.731   27.563    0.394    1.061 
 4779  161.475    4.089    3.248   34.731   27.563    0.417    1.061 
 4780  161.649    4.088    3.248   34.731   27.563    0.417    1.061 
 4781  161.822    4.088    3.248   34.731   27.563    0.417    1.061 
 4782  161.996    4.086    3.248   34.731   27.563    0.417    1.061 
 4783  162.169    4.084    3.247   34.731   27.563    0.417    1.061 
 4784  162.516    4.077    3.247   34.731   27.563    0.417    1.061 
 4785  162.690    4.073    3.247   34.730   27.563    0.417    1.061 
 4786  162.863    4.068    3.246   34.730   27.563    0.417    1.061 
 4787  163.037    4.067    3.246   34.730   27.563    0.417    1.061 
 4788  163.210    4.066    3.245   34.730   27.563    0.417    1.061 
 4789  163.384    4.065    3.245   34.730   27.563    0.394    1.061 
 4790  163.557    4.060    3.245   34.729   27.563    0.394    1.061 
 4791  163.731    4.055    3.245   34.728   27.563    0.394    1.061 
 4792  163.905    4.055    3.245   34.727   27.563    0.394    1.061 
 4793  164.078    4.052    3.244   34.726   27.563    0.371    1.061 
 4794  164.252    4.049    3.244   34.726   27.563    0.371    1.061 
 4795  164.425    4.047    3.244   34.725   27.562    0.371    1.061 
 4796  164.599    4.046    3.244   34.724   27.562    0.394    1.061 
 4798  164.772    4.043    3.244   34.723   27.562    0.371    1.061 
 4799  164.946    4.043    3.244   34.723   27.562    0.371    1.061 
 4800  165.119    4.043    3.244   34.723   27.562    0.371    1.061 
 4802  165.293    4.042    3.243   34.723   27.562    0.371    1.061 
 4803  165.466    4.040    3.243   34.723   27.562    0.371    1.061 
 4805  165.640    4.039    3.243   34.723   27.562    0.394    1.061 
 4809  165.813    4.038    3.243   34.723   27.562    0.394    1.061 
 4814  165.987    4.038    3.243   34.723   27.562    0.371    1.061 
 4820  166.160    4.038    3.243   34.723   27.562    0.371    1.061 
 4823  166.334    4.038    3.243   34.723   27.562    0.371    1.061 
 4825  166.507    4.038    3.243   34.723   27.562    0.371    1.061 
 4827  166.681    4.038    3.243   34.723   27.562    0.371    1.061 
 4829  166.855    4.039    3.243   34.723   27.562    0.394    1.061 
 4830  167.028    4.040    3.243   34.723   27.562    0.394    1.061 
 4831  167.202    4.040    3.243   34.723   27.562    0.394    1.061 
 4832  167.375    4.042    3.243   34.723   27.562    0.394    1.061 
 4833  167.549    4.045    3.244   34.723   27.562    0.394    1.061 
 4834  167.722    4.045    3.244   34.723   27.562    0.394    1.061 
 4835  167.896    4.045    3.244   34.723   27.562    0.417    1.061 
 4837  168.069    4.046    3.244   34.724   27.562    0.417    1.061 
 4838  168.243    4.046    3.244   34.724   27.562    0.417    1.061 
 4839  168.416    4.047    3.244   34.724   27.562    0.417    1.061 
 4840  168.590    4.047    3.244   34.725   27.562    0.441    1.061 
 4841  168.763    4.047    3.244   34.725   27.562    0.441    1.061 
 4842  168.937    4.048    3.244   34.726   27.562    0.441    1.061 
 4844  169.284    4.062    3.245   34.726   27.562    0.441    1.061 
 4846  169.457    4.074    3.246   34.726   27.562    0.417    1.061 
 4847  169.631    4.078    3.247   34.726   27.562    0.441    1.061 
 4849  169.805    4.096    3.249   34.726   27.562    0.417    1.057 
 4850  169.978    4.097    3.249   34.729   27.563    0.417    1.057 
 4852  170.152    4.097    3.249   34.729   27.563    0.417    1.057 
 4854  170.325    4.100    3.249   34.731   27.563    0.417    1.057 
 4857  170.499    4.111    3.251   34.733   27.563    0.371    1.057 
 4859  170.672    4.114    3.251   34.735   27.563    0.394    1.057 
 4861  170.846    4.114    3.251   34.735   27.563    0.371    1.057 
 4863  171.019    4.114    3.251   34.735   27.563    0.371    1.057 
 4865  171.193    4.115    3.251   34.736   27.565    0.371    1.057 
 4866  171.366    4.116    3.252   34.738   27.565    0.371    1.057 
 4868  171.540    4.122    3.252   34.738   27.565    0.371    1.057 
 4869  171.713    4.122    3.252   34.738   27.565    0.394    1.057 
 4871  171.887    4.123    3.252   34.738   27.565    0.394    1.057 
 4872  172.060    4.128    3.253   34.739   27.565    0.394    1.057 
 4873  172.234    4.130    3.253   34.739   27.565    0.394    1.057 
 4875  172.407    4.131    3.253   34.740   27.566    0.394    1.057 
 4876  172.581    4.131    3.253   34.741   27.566    0.394    1.057 
 4877  172.755    4.131    3.253   34.743   27.568    0.394    1.057 
 4879  173.102    4.136    3.254   34.744   27.568    0.394    1.057 
 4880  173.275    4.137    3.254   34.745   27.569    0.417    1.057 
 4882  173.449    4.144    3.255   34.746   27.569    0.417    1.057 
 4883  173.622    4.170    3.256   34.749   27.569    0.417    1.057 
 4884  173.796    4.175    3.258   34.751   27.569    0.417    1.057 
 4885  173.969    4.175    3.258   34.751   27.569    0.417    1.057 
 4887  174.143    4.175    3.258   34.751   27.569    0.417    1.057 
 4888  174.316    4.175    3.258   34.751   27.569    0.417    1.057 
 4890  174.490    4.175    3.258   34.751   27.569    0.394    1.057 
 4892  174.663    4.175    3.258   34.751   27.569    0.371    1.057 
 4893  174.837    4.175    3.258   34.751   27.569    0.371    1.057 
 4896  175.010    4.175    3.258   34.751   27.569    0.371    1.057 
 4898  175.184    4.175    3.258   34.751   27.569    0.371    1.057 
 4900  175.357    4.175    3.258   34.751   27.570    0.371    1.057 
 4903  175.531    4.175    3.258   34.751   27.570    0.371    1.057 
 4905  175.704    4.176    3.258   34.751   27.570    0.394    1.057 
 4909  175.878    4.176    3.258   34.751   27.570    0.394    1.057 
 4911  176.051    4.176    3.258   34.751   27.570    0.394    1.053 
 4913  176.225    4.176    3.258   34.751   27.570    0.394    1.053 
 4916  176.399    4.176    3.258   34.751   27.570    0.394    1.057 
 4917  176.572    4.176    3.258   34.751   27.570    0.394    1.057 
 4918  176.746    4.175    3.258   34.751   27.570    0.394    1.053 
 4920  176.919    4.173    3.258   34.751   27.570    0.394    1.053 
 4921  177.093    4.173    3.258   34.751   27.570    0.394    1.053 
 4923  177.266    4.172    3.258   34.751   27.570    0.394    1.053 
 4924  177.440    4.172    3.258   34.752   27.570    0.394    1.053 
 4926  177.787    4.172    3.258   34.752   27.570    0.394    1.053 
 4928  177.960    4.172    3.258   34.752   27.570    0.394    1.053 
 4929  178.134    4.172    3.258   34.752   27.570    0.394    1.053 
 4931  178.307    4.172    3.258   34.752   27.571    0.394    1.053 
 4933  178.481    4.173    3.258   34.752   27.571    0.394    1.053 
 4934  178.654    4.173    3.258   34.752   27.571    0.394    1.053 
 4936  178.828    4.175    3.258   34.752   27.571    0.394    1.053 
 4937  179.001    4.180    3.259   34.752   27.571    0.394    1.053 
 4939  179.175    4.181    3.259   34.752   27.571    0.394    1.053 
 4940  179.348    4.181    3.259   34.752   27.571    0.394    1.053 
 4943  179.522    4.184    3.259   34.752   27.571    0.394    1.053 
 4944  179.695    4.185    3.259   34.754   27.571    0.394    1.053 
 4946  179.869    4.185    3.259   34.754   27.571    0.371    1.053 
 4948  180.042    4.186    3.260   34.754   27.571    0.394    1.053 
 4950  180.216    4.188    3.260   34.755   27.571    0.394    1.049 
 4951  180.390    4.211    3.261   34.755   27.571    0.371    1.049 
 4953  180.563    4.219    3.263   34.757   27.571    0.371    1.049 
 4955  180.737    4.221    3.263   34.758   27.571    0.394    1.049 
 4957  180.910    4.221    3.263   34.758   27.571    0.394    1.049 
 4958  181.084    4.222    3.263   34.758   27.571    0.394    1.049 
 4960  181.257    4.224    3.263   34.758   27.571    0.394    1.049 
 4962  181.431    4.224    3.264   34.760   27.571    0.394    1.049 
 4963  181.604    4.225    3.264   34.760   27.571    0.394    1.049 
 4965  181.778    4.251    3.265   34.764   27.571    0.394    1.049 
 4966  181.951    4.257    3.267   34.765   27.571    0.394    1.049 
 4967  182.125    4.260    3.267   34.767   27.572    0.394    1.049 
 4969  182.298    4.264    3.268   34.767   27.572    0.394    1.049 
 4970  182.472    4.267    3.268   34.768   27.572    0.371    1.049 
 4972  182.645    4.391    3.277   34.771   27.572    0.394    1.049 
 4973  182.819    4.415    3.282   34.777   27.573    0.394    1.049 
 4974  182.992    4.419    3.283   34.781   27.573    0.394    1.049 
 4975  183.166    4.422    3.283   34.784   27.573    0.394    1.049 
 4977  183.339    4.432    3.285   34.788   27.573    0.394    1.049 
 4978  183.513    4.434    3.285   34.790   27.573    0.394    1.049 
 4979  183.686    4.435    3.285   34.791   27.574    0.394    1.049 
 4981  183.860    4.437    3.285   34.793   27.575    0.394    1.049 
 4982  184.033    4.437    3.286   34.793   27.575    0.394    1.049 
 4983  184.207    4.438    3.286   34.794   27.575    0.394    1.049 
 4985  184.380    4.440    3.286   34.796   27.576    0.371    1.049 
 4987  184.554    4.443    3.286   34.797   27.577    0.394    1.049 
 4989  184.728    4.449    3.287   34.799   27.577    0.394    1.049 
 4990  184.901    4.450    3.287   34.799   27.577    0.394    1.049 
 4991  185.075    4.454    3.287   34.799   27.577    0.394    1.049 
 4994  185.248    4.455    3.288   34.799   27.578    0.394    1.046 
 4995  185.422    4.455    3.288   34.799   27.578    0.394    1.046 
 4997  185.595    4.456    3.288   34.799   27.578    0.394    1.046 
 4999  185.769    4.457    3.288   34.799   27.578    0.394    1.046 
 5000  185.942    4.458    3.288   34.799   27.578    0.394    1.046 
 5002  186.116    4.468    3.289   34.799   27.578    0.394    1.046 
 5004  186.289    4.470    3.289   34.800   27.578    0.371    1.046 
 5005  186.463    4.470    3.289   34.801   27.577    0.394    1.046 
 5006  186.636    4.470    3.289   34.801   27.577    0.394    1.049 
 5008  186.810    4.471    3.289   34.801   27.577    0.371    1.049 
 5009  186.983    4.471    3.290   34.801   27.577    0.371    1.049 
 5011  187.157    4.482    3.290   34.801   27.577    0.371    1.049 
 5012  187.330    4.488    3.291   34.801   27.577    0.371    1.049 
 5013  187.504    4.496    3.291   34.801   27.577    0.371    1.049 
 5014  187.677    4.523    3.294   34.803   27.578    0.371    1.049 
 5017  187.851    4.564    3.299   34.809   27.578    0.371    1.049 
 5018  188.024    4.590    3.300   34.817   27.578    0.371    1.049 
 5020  188.198    4.626    3.305   34.821   27.578    0.371    1.049 
 5021  188.371    4.630    3.306   34.826   27.580    0.371    1.049 
 5023  188.545    4.630    3.306   34.828   27.581    0.371    1.049 
 5024  188.718    4.631    3.306   34.828   27.581    0.371    1.049 
 5025  188.892    4.632    3.306   34.829   27.581    0.371    1.049 
 5027  189.065    4.637    3.307   34.829   27.581    0.371    1.049 
 5029  189.239    4.640    3.307   34.829   27.581    0.371    1.049 
 5031  189.412    4.641    3.307   34.829   27.581    0.348    1.049 
 5033  189.586    4.644    3.308   34.830   27.581    0.348    1.049 
 5035  189.759    4.650    3.308   34.830   27.582    0.348    1.049 
 5038  189.933    4.650    3.308   34.831   27.582    0.348    1.046 
 5039  190.106    4.651    3.308   34.833   27.583    0.348    1.046 
 5042  190.280    4.651    3.308   34.834   27.584    0.394    1.046 
 5044  190.453    4.651    3.309   34.837   27.585    0.371    1.046 
 5046  190.627    4.651    3.309   34.838   27.585    0.371    1.046 
 5048  190.801    4.665    3.310   34.839   27.585    0.371    1.046 
 5050  190.974    4.668    3.310   34.839   27.585    0.371    1.046 
 5052  191.148    4.671    3.311   34.839   27.585    0.371    1.046 
 5054  191.321    4.672    3.311   34.839   27.585    0.371    1.046 
 5056  191.495    4.673    3.311   34.839   27.585    0.394    1.046 
 5057  191.668    4.674    3.311   34.839   27.585    0.371    1.046 
 5059  191.842    4.674    3.311   34.839   27.585    0.371    1.046 
 5060  192.015    4.674    3.311   34.839   27.585    0.394    1.046 
 5063  192.189    4.674    3.311   34.839   27.585    0.371    1.046 
 5064  192.362    4.674    3.311   34.839   27.585    0.371    1.046 
 5066  192.536    4.674    3.311   34.839   27.585    0.371    1.046 
 5067  192.709    4.674    3.311   34.839   27.585    0.371    1.046 
 5069  192.883    4.674    3.311   34.839   27.585    0.371    1.046 
 5071  193.056    4.675    3.311   34.839   27.585    0.371    1.046 
 5072  193.230    4.676    3.311   34.839   27.585    0.371    1.046 
 5074  193.403    4.676    3.311   34.838   27.584    0.371    1.046 
 5075  193.577    4.677    3.311   34.838   27.584    0.371    1.046 
 5076  193.750    4.678    3.312   34.838   27.584    0.371    1.046 
 5077  193.924    4.683    3.312   34.838   27.584    0.371    1.046 
 5079  194.097    4.685    3.312   34.838   27.584    0.371    1.046 
 5080  194.271    4.685    3.312   34.838   27.584    0.371    1.046 
 5082  194.444    4.685    3.312   34.838   27.584    0.371    1.046 
 5083  194.618    4.685    3.312   34.838   27.584    0.371    1.046 
 5085  194.791    4.685    3.312   34.838   27.584    0.371    1.046 
 5086  194.965    4.685    3.312   34.838   27.584    0.371    1.046 
 5087  195.138    4.685    3.312   34.838   27.584    0.371    1.046 
 5089  195.312    4.685    3.312   34.840   27.585    0.371    1.046 
 5090  195.485    4.685    3.312   34.842   27.586    0.371    1.046 
 5091  195.659    4.681    3.312   34.842   27.586    0.371    1.046 
 5093  195.832    4.680    3.312   34.842   27.586    0.371    1.046 
 5095  196.006    4.680    3.312   34.842   27.586    0.371    1.046 
 5096  196.179    4.680    3.312   34.842   27.587    0.371    1.046 
 5098  196.353    4.680    3.312   34.842   27.587    0.371    1.046 
 5100  196.526    4.679    3.312   34.842   27.587    0.348    1.046 
 5102  196.700    4.679    3.312   34.842   27.587    0.348    1.042 
 5103  196.873    4.679    3.312   34.842   27.587    0.348    1.042 
 5104  197.047    4.677    3.312   34.842   27.588    0.348    1.042 
 5108  197.220    4.673    3.312   34.842   27.588    0.394    1.042 
 5109  197.394    4.673    3.312   34.842   27.588    0.394    1.042 
 5112  197.567    4.670    3.311   34.842   27.588    0.394    1.042 
 5113  197.741    4.669    3.311   34.842   27.588    0.394    1.042 
 5115  197.914    4.664    3.311   34.842   27.589    0.371    1.042 
 5117  198.088    4.603    3.306   34.842   27.596    0.371    1.042 
 5119  198.261    4.572    3.303   34.841   27.598    0.371    1.042 
 5120  198.435    4.554    3.301   34.841   27.598    0.394    1.042 
 5122  198.608    4.532    3.298   34.840   27.600    0.394    1.042 
 5123  198.782    4.524    3.298   34.834   27.600    0.394    1.042 
 5125  198.955    4.497    3.295   34.833   27.600    0.394    1.042 
 5126  199.129    4.488    3.294   34.832   27.600    0.394    1.042 
 5127  199.302    4.488    3.294   34.832   27.600    0.394    1.042 
 5129  199.476    4.488    3.294   34.832   27.600    0.394    1.042 
 5130  199.649    4.488    3.294   34.832   27.600    0.394    1.042 
 5131  199.823    4.488    3.294   34.832   27.600    0.394    1.042 
 5133  200.170    4.488    3.294   34.831   27.600    0.394    1.042 
 5134  200.343    4.488    3.294   34.831   27.600    0.394    1.042 
 5135  200.517    4.488    3.294   34.831   27.600    0.394    1.042 
 5137  200.864    4.488    3.294   34.831   27.599    0.394    1.042 
 5139  201.211    4.492    3.294   34.831   27.600    0.371    1.042 
 5141  201.385    4.492    3.294   34.831   27.600    0.371    1.042 
 5142  201.558    4.492    3.294   34.831   27.600    0.371    1.042 
 5143  201.732    4.492    3.294   34.830   27.600    0.371    1.042 
 5144  201.905    4.492    3.294   34.827   27.600    0.371    1.042 
 5145  202.079    4.492    3.294   34.827   27.600    0.371    1.042 
 5146  202.252    4.492    3.294   34.826   27.600    0.371    1.042 
 5147  202.426    4.492    3.294   34.826   27.600    0.371    1.042 
 5148  202.599    4.488    3.294   34.826   27.600    0.371    1.042 
 5149  202.773    4.484    3.294   34.826   27.600    0.371    1.042 
 5151  202.946    4.416    3.288   34.826   27.602    0.348    1.042 
 5152  203.120    4.404    3.286   34.826   27.603    0.371    1.042 
 5154  203.293    4.397    3.286   34.826   27.603    0.371    1.042 
 5155  203.467    4.389    3.284   34.824   27.603    0.394    1.038 
 5159  203.640    4.379    3.283   34.823   27.603    0.394    1.038 
 5160  203.814    4.378    3.283   34.821   27.603    0.394    1.038 
 5164  203.987    4.378    3.283   34.821   27.603    0.394    1.038 
 5169  204.161    4.377    3.283   34.820   27.603    0.394    1.038 
 5178  204.334    4.377    3.283   34.820   27.603    0.394    1.038 
 5183  204.508    4.376    3.283   34.818   27.604    0.394    1.038 
 5185  204.681    4.367    3.283   34.818   27.604    0.417    1.038 
 5187  204.855    4.363    3.282   34.818   27.604    0.394    1.038 
 5188  205.028    4.362    3.282   34.818   27.604    0.394    1.038 
 5189  205.202    4.360    3.282   34.818   27.604    0.394    1.038 
 5191  205.375    4.356    3.281   34.819   27.604    0.394    1.038 
 5192  205.549    4.355    3.281   34.819   27.604    0.417    1.034 
 5193  205.722    4.346    3.281   34.819   27.605    0.394    1.034 
 5194  205.896    4.343    3.280   34.819   27.606    0.394    1.034 
 5195  206.069    4.340    3.280   34.819   27.606    0.417    1.034 
 5196  206.243    4.330    3.279   34.819   27.607    0.417    1.034 
 5197  206.416    4.326    3.279   34.819   27.607    0.417    1.034 
 5198  206.590    4.318    3.278   34.819   27.608    0.394    1.034 
 5199  206.763    4.318    3.278   34.819   27.608    0.394    1.034 
 5200  206.937    4.318    3.278   34.818   27.608    0.394    1.034 
 5201  207.110    4.318    3.278   34.818   27.608    0.371    1.034 
 5202  207.284    4.318    3.278   34.818   27.608    0.394    1.034 
 5203  207.457    4.318    3.278   34.818   27.608    0.394    1.034 
 5204  207.631    4.318    3.278   34.818   27.608    0.394    1.034 
 5205  207.978    4.318    3.278   34.818   27.608    0.394    1.034 
 5207  208.151    4.318    3.278   34.818   27.608    0.394    1.034 
 5208  208.325    4.318    3.278   34.818   27.608    0.394    1.034 
 5209  208.498    4.318    3.278   34.818   27.608    0.371    1.034 
 5210  208.672    4.318    3.278   34.818   27.608    0.371    1.034 
 5212  209.019    4.318    3.278   34.818   27.608    0.371    1.034 
 5214  209.192    4.318    3.278   34.818   27.608    0.371    1.034 
 5217  209.366    4.318    3.278   34.818   27.608    0.371    1.034 
 5218  209.539    4.318    3.278   34.818   27.608    0.371    1.034 
 5221  209.713    4.317    3.278   34.818   27.608    0.371    1.034 
 5225  209.886    4.314    3.278   34.818   27.608    0.371    1.034 
 5227  210.060    4.314    3.278   34.818   27.608    0.348    1.034 
 5231  210.233    4.314    3.278   34.818   27.608    0.371    1.034 
 5233  210.407    4.314    3.278   34.818   27.608    0.371    1.034 
 5236  210.580    4.315    3.278   34.818   27.608    0.371    1.034 
 5238  210.754    4.317    3.278   34.818   27.608    0.371    1.034 
 5239  210.927    4.319    3.278   34.818   27.608    0.371    1.030 
 5242  211.274    4.320    3.278   34.818   27.608    0.394    1.030 
 5243  211.448    4.320    3.278   34.820   27.609    0.394    1.030 
 5244  211.621    4.320    3.278   34.820   27.609    0.394    1.030 
 5246  211.795    4.326    3.279   34.821   27.609    0.394    1.030 
 5247  211.968    4.331    3.279   34.821   27.609    0.394    1.030 
 5248  212.142    4.331    3.279   34.821   27.609    0.394    1.030 
 5249  212.489    4.331    3.279   34.821   27.609    0.394    1.030 
 5251  212.836    4.332    3.280   34.823   27.610    0.394    1.030 
 5252  213.009    4.332    3.280   34.823   27.610    0.394    1.030 
 5253  213.182    4.332    3.280   34.823   27.610    0.394    1.030 
 5254  213.356    4.332    3.280   34.823   27.610    0.394    1.030 
 5255  213.529    4.332    3.280   34.823   27.610    0.394    1.030 
 5256  213.703    4.332    3.280   34.823   27.610    0.394    1.030 
 5257  213.876    4.332    3.280   34.823   27.610    0.394    1.030 
 5258  214.223    4.332    3.280   34.823   27.610    0.394    1.030 
 5259  214.397    4.332    3.280   34.823   27.610    0.394    1.030 
 5260  214.570    4.332    3.280   34.823   27.610    0.394    1.030 
 5261  214.744    4.332    3.280   34.823   27.610    0.394    1.030 
 5262  214.917    4.332    3.280   34.823   27.610    0.394    1.030 
 5263  215.091    4.332    3.280   34.823   27.610    0.394    1.030 
 5264  215.264    4.332    3.280   34.823   27.610    0.394    1.030 
 5265  215.438    4.332    3.280   34.823   27.610    0.371    1.030 
 5266  215.611    4.332    3.280   34.823   27.610    0.371    1.030 
 5267  215.785    4.332    3.280   34.823   27.610    0.371    1.030 
 5269  216.132    4.333    3.280   34.823   27.610    0.348    1.030 
 5271  216.305    4.335    3.280   34.823   27.610    0.371    1.030 
 5274  216.479    4.335    3.280   34.823   27.610    0.371    1.030 
 5276  216.652    4.335    3.280   34.823   27.610    0.371    1.030 
 5294  216.826    4.334    3.280   34.822   27.610    0.394    1.026 
 5296  216.999    4.334    3.280   34.822   27.610    0.417    1.026 
 5300  217.173    4.334    3.280   34.822   27.610    0.394    1.026 
 5301  217.346    4.333    3.280   34.822   27.610    0.394    1.026 
 5302  217.520    4.333    3.280   34.822   27.610    0.371    1.026 
 5304  217.693    4.331    3.280   34.822   27.610    0.394    1.026 
 5305  217.867    4.330    3.280   34.822   27.610    0.371    1.026 
 5306  218.040    4.328    3.280   34.823   27.610    0.371    1.026 
 5307  218.214    4.326    3.280   34.824   27.612    0.394    1.026 
 5308  218.387    4.321    3.279   34.824   27.612    0.371    1.026 
 5309  218.561    4.320    3.279   34.825   27.613    0.371    1.026 
 5310  218.734    4.317    3.279   34.825   27.613    0.371    1.026 
 5311  218.908    4.317    3.279   34.825   27.613    0.371    1.026 
 5312  219.081    4.317    3.279   34.825   27.613    0.371    1.026 
 5313  219.255    4.317    3.279   34.825   27.613    0.371    1.026 
 5315  219.602    4.317    3.279   34.825   27.613    0.371    1.026 
 5317  219.775    4.317    3.279   34.825   27.613    0.371    1.026 
 5318  219.949    4.317    3.279   34.825   27.613    0.371    1.026 
 5319  220.122    4.317    3.279   34.825   27.613    0.371    1.026 
 5321  220.469    4.324    3.279   34.825   27.613    0.371    1.026 
 5322  220.643    4.327    3.280   34.825   27.613    0.394    1.026 
 5324  220.816    4.345    3.281   34.825   27.613    0.394    1.026 
 5326  220.990    4.349    3.282   34.826   27.613    0.394    1.026 
 5327  221.163    4.351    3.282   34.826   27.613    0.394    1.026 
 5329  221.337    4.358    3.283   34.828   27.613    0.394    1.026 
 5332  221.510    4.377    3.285   34.829   27.613    0.394    1.026 
 5334  221.684    4.379    3.285   34.831   27.614    0.394    1.026 
 5336  221.857    4.380    3.286   34.832   27.614    0.394    1.026 
 5338  222.031    4.380    3.286   34.837   27.615    0.394    1.026 
 5341  222.204    4.380    3.286   34.837   27.615    0.394    1.026 
 5344  222.378    4.382    3.286   34.837   27.615    0.348    1.026 
 5345  222.551    4.382    3.286   34.837   27.616    0.371    1.026 
 5347  222.725    4.382    3.286   34.837   27.616    0.348    1.026 
 5349  222.898    4.382    3.286   34.837   27.616    0.348    1.026 
 5350  223.071    4.382    3.286   34.837   27.616    0.348    1.026 
 5351  223.245    4.382    3.286   34.839   27.616    0.348    1.026 
 5353  223.592    4.409    3.288   34.840   27.616    0.348    1.026 
 5355  223.765    4.411    3.289   34.840   27.616    0.371    1.026 
 5356  223.939    4.411    3.289   34.841   27.616    0.348    1.026 
 5357  224.286    4.411    3.289   34.841   27.616    0.371    1.026 
 5359  224.633    4.432    3.290   34.841   27.617    0.371    1.023 
 5360  224.806    4.437    3.292   34.846   27.617    0.348    1.023 
 5362  225.153    4.438    3.292   34.846   27.618    0.371    1.023 
 5363  225.327    4.438    3.292   34.847   27.618    0.371    1.023 
 5364  225.500    4.439    3.292   34.847   27.618    0.371    1.023 
 5365  225.847    4.439    3.292   34.848   27.619    0.371    1.023 
 5367  226.021    4.443    3.293   34.850   27.620    0.371    1.023 
 5368  226.194    4.444    3.293   34.850   27.620    0.371    1.023 
 5369  226.541    4.445    3.293   34.850   27.620    0.371    1.023 
 5370  226.715    4.445    3.293   34.850   27.620    0.371    1.023 
 5371  226.888    4.445    3.293   34.850   27.620    0.371    1.023 
 5373  227.235    4.445    3.293   34.850   27.620    0.371    1.023 
 5375  227.409    4.445    3.293   34.850   27.620    0.371    1.023 
 5377  227.756    4.445    3.293   34.851   27.620    0.394    1.023 
 5379  227.929    4.445    3.293   34.851   27.620    0.371    1.023 
 5380  228.103    4.445    3.293   34.851   27.620    0.371    1.023 
 5383  228.276    4.409    3.290   34.851   27.624    0.394    1.023 
 5385  228.450    4.407    3.290   34.851   27.624    0.394    1.023 
 5388  228.623    4.405    3.290   34.851   27.624    0.371    1.023 
 5393  228.797    4.404    3.289   34.851   27.625    0.371    1.023 
 5397  228.970    4.394    3.288   34.852   27.626    0.371    1.023 
 5400  229.143    4.386    3.288   34.853   27.628    0.371    1.023 
 5402  229.317    4.381    3.287   34.853   27.628    0.371    1.023 
 5404  229.490    4.376    3.287   34.853   27.628    0.371    1.023 
 5405  229.664    4.376    3.287   34.853   27.628    0.371    1.023 
 5407  229.837    4.374    3.287   34.853   27.628    0.371    1.023 
 5409  230.011    4.374    3.287   34.853   27.628    0.371    1.023 
 5410  230.184    4.374    3.287   34.852   27.628    0.394    1.023 
 5412  230.531    4.374    3.287   34.851   27.628    0.394    1.023 
 5414  230.705    4.374    3.287   34.851   27.628    0.394    1.023 
 5415  230.878    4.374    3.287   34.851   27.628    0.394    1.023 
 5416  231.052    4.374    3.287   34.851   27.628    0.394    1.023 
 5418  231.225    4.376    3.287   34.849   27.626    0.394    1.023 
 5419  231.399    4.377    3.287   34.849   27.626    0.394    1.023 
 5420  231.572    4.378    3.287   34.848   27.625    0.394    1.023 
 5422  231.746    4.379    3.287   34.847   27.624    0.394    1.023 
 5424  231.919    4.380    3.287   34.847   27.624    0.371    1.023 
 5426  232.093    4.380    3.287   34.847   27.624    0.371    1.023 
 5427  232.266    4.380    3.287   34.847   27.624    0.348    1.023 
 5430  232.440    4.380    3.287   34.847   27.624    0.348    1.023 
 5433  232.613    4.380    3.287   34.847   27.624    0.348    1.023 
 5441  232.787    4.380    3.287   34.847   27.624    0.348    1.019 
 5443  232.960    4.380    3.287   34.847   27.624    0.348    1.019 
 5447  233.134    4.380    3.287   34.847   27.624    0.348    1.019 
 5449  233.307    4.380    3.287   34.847   27.624    0.348    1.019 
 5451  233.481    4.378    3.287   34.847   27.624    0.348    1.019 
 5452  233.654    4.377    3.287   34.847   27.624    0.371    1.019 
 5454  233.827    4.377    3.287   34.848   27.624    0.348    1.019 
 5455  234.001    4.377    3.287   34.848   27.625    0.348    1.019 
 5456  234.174    4.377    3.287   34.848   27.625    0.348    1.019 
 5457  234.348    4.377    3.287   34.848   27.625    0.324    1.019 
 5458  234.521    4.377    3.287   34.848   27.625    0.348    1.019 
 5459  234.695    4.377    3.287   34.848   27.625    0.348    1.019 
 5460  234.868    4.377    3.287   34.848   27.625    0.348    1.019 
 5461  235.042    4.377    3.287   34.848   27.625    0.348    1.019 
 5463  235.389    4.380    3.287   34.848   27.625    0.371    1.019 
 5464  235.562    4.387    3.288   34.848   27.625    0.371    1.019 
 5466  235.909    4.395    3.289   34.848   27.625    0.348    1.019 
 5467  236.083    4.398    3.289   34.852   27.626    0.371    1.019 
 5469  236.430    4.399    3.290   34.857   27.630    0.371    1.019 
 5471  236.603    4.399    3.290   34.857   27.630    0.371    1.019 
 5472  236.777    4.399    3.290   34.857   27.630    0.371    1.019 
 5473  236.950    4.399    3.290   34.857   27.630    0.371    1.019 
 5475  237.124    4.399    3.290   34.857   27.630    0.371    1.019 
 5477  237.297    4.399    3.290   34.857   27.630    0.371    1.019 
 5479  237.471    4.399    3.290   34.857   27.630    0.371    1.019 
 5481  237.644    4.400    3.290   34.857   27.630    0.371    1.019 
 5483  237.817    4.400    3.290   34.857   27.630    0.371    1.019 
 5485  237.991    4.400    3.290   34.857   27.630    0.371    1.019 
 5488  238.164    4.399    3.290   34.857   27.630    0.371    1.019 
 5491  238.338    4.400    3.290   34.857   27.630    0.348    1.019 
 5494  238.511    4.400    3.290   34.857   27.630    0.348    1.019 
 5496  238.685    4.400    3.290   34.857   27.630    0.371    1.019 
 5499  238.858    4.400    3.290   34.857   27.629    0.371    1.019 
 5500  239.032    4.400    3.290   34.856   27.629    0.371    1.019 
 5502  239.205    4.400    3.290   34.856   27.629    0.348    1.019 
 5503  239.379    4.400    3.290   34.856   27.629    0.348    1.019 
 5505  239.552    4.400    3.290   34.856   27.629    0.348    1.019 
 5506  239.726    4.400    3.290   34.856   27.629    0.348    1.015 
 5507  239.899    4.400    3.290   34.856   27.629    0.371    1.015 
 5508  240.073    4.400    3.290   34.856   27.629    0.371    1.019 
 5510  240.246    4.400    3.290   34.856   27.629    0.371    1.015 
 5511  240.593    4.400    3.290   34.856   27.629    0.371    1.015 
 5513  240.767    4.400    3.290   34.856   27.629    0.371    1.015 
 5514  240.940    4.401    3.290   34.856   27.629    0.394    1.015 
 5515  241.287    4.402    3.290   34.856   27.629    0.394    1.015 
 5517  241.460    4.417    3.291   34.856   27.627    0.371    1.015 
 5518  241.807    4.417    3.292   34.856   27.627    0.394    1.015 
 5520  241.981    4.438    3.293   34.856   27.627    0.417    1.015 
 5521  242.154    4.442    3.294   34.857   27.627    0.394    1.015 
 5522  242.328    4.446    3.294   34.858   27.627    0.394    1.015 
 5524  242.501    4.475    3.297   34.859   27.627    0.394    1.015 
 5527  242.675    4.490    3.299   34.861   27.627    0.394    1.015 
 5528  242.848    4.490    3.299   34.865   27.627    0.371    1.015 
 5531  243.022    4.496    3.299   34.865   27.627    0.371    1.015 
 5534  243.195    4.509    3.301   34.867   27.627    0.371    1.015 
 5537  243.369    4.510    3.301   34.868   27.627    0.371    1.015 
 5540  243.542    4.517    3.302   34.868   27.627    0.371    1.015 
 5543  243.716    4.518    3.302   34.869   27.627    0.371    1.015 
 5546  243.889    4.519    3.302   34.870   27.627    0.371    1.015 
 5548  244.063    4.520    3.302   34.871   27.628    0.371    1.015 
 5550  244.236    4.521    3.303   34.872   27.628    0.371    1.015 
 5552  244.583    4.522    3.303   34.874   27.629    0.371    1.015 
 5555  244.930    4.523    3.303   34.874   27.629    0.371    1.015 
 5557  245.103    4.536    3.304   34.875   27.630    0.371    1.015 
 5559  245.450    4.539    3.304   34.876   27.630    0.371    1.015 
 5560  245.624    4.539    3.305   34.876   27.630    0.371    1.015 
 5562  245.797    4.541    3.305   34.876   27.630    0.348    1.015 
 5563  245.971    4.542    3.305   34.877   27.630    0.348    1.015 
 5564  246.144    4.545    3.305   34.878   27.630    0.371    1.015 
 5566  246.318    4.546    3.305   34.879   27.630    0.371    1.015 
 5567  246.491    4.547    3.305   34.879   27.630    0.371    1.015 
 5569  246.665    4.549    3.306   34.880   27.630    0.371    1.015 
 5571  246.838    4.550    3.306   34.882   27.630    0.371    1.015 
 5573  247.012    4.554    3.306   34.882   27.631    0.371    1.015 
 5575  247.185    4.555    3.306   34.882   27.631    0.348    1.015 
 5578  247.358    4.568    3.308   34.882   27.631    0.371    1.015 
 5582  247.532    4.571    3.308   34.882   27.631    0.371    1.015 
 5585  247.705    4.572    3.308   34.882   27.631    0.371    1.011 
 5588  247.879    4.572    3.308   34.882   27.632    0.371    1.011 
 5590  248.052    4.572    3.308   34.882   27.632    0.371    1.011 
 5592  248.226    4.570    3.308   34.882   27.632    0.371    1.011 
 5593  248.399    4.570    3.308   34.882   27.633    0.371    1.011 
 5595  248.573    4.541    3.306   34.882   27.634    0.371    1.011 
 5596  248.746    4.526    3.305   34.882   27.636    0.371    1.011 
 5597  248.920    4.519    3.304   34.882   27.637    0.371    1.011 
 5599  249.267    4.518    3.303   34.883   27.637    0.371    1.011 
 5601  249.440    4.517    3.303   34.883   27.637    0.371    1.011 
 5602  249.787    4.517    3.303   34.882   27.637    0.371    1.011 
 5603  249.960    4.516    3.303   34.882   27.637    0.371    1.011 
 5604  250.134    4.515    3.303   34.882   27.637    0.371    1.011 
 5605  250.307    4.509    3.303   34.882   27.638    0.371    1.011 
 5607  250.481    4.504    3.302   34.882   27.638    0.371    1.011 
 5608  250.828    4.503    3.302   34.882   27.638    0.371    1.011 
 5610  251.001    4.484    3.301   34.881   27.639    0.371    1.011 
 5611  251.175    4.480    3.300   34.880   27.639    0.371    1.011 
 5612  251.348    4.478    3.300   34.880   27.639    0.371    1.011 
 5614  251.522    4.477    3.300   34.880   27.639    0.371    1.011 
 5616  251.695    4.476    3.299   34.879   27.639    0.394    1.011 
 5618  251.869    4.476    3.299   34.879   27.639    0.394    1.011 
 5622  252.042    4.475    3.299   34.879   27.639    0.371    1.011 
 5627  252.216    4.475    3.299   34.879   27.639    0.371    1.011 
 5631  252.389    4.474    3.299   34.879   27.639    0.371    1.011 
 5634  252.562    4.474    3.299   34.879   27.639    0.348    1.011 
 5637  252.736    4.472    3.299   34.879   27.639    0.348    1.011 
 5638  252.909    4.472    3.299   34.879   27.639    0.348    1.011 
 5640  253.256    4.472    3.299   34.879   27.639    0.348    1.011 
 5641  253.430    4.472    3.299   34.879   27.639    0.348    1.011 
 5643  253.777    4.472    3.299   34.879   27.639    0.348    1.011 
 5645  254.124    4.471    3.299   34.879   27.639    0.348    1.011 
 5646  254.297    4.471    3.299   34.879   27.639    0.348    1.011 
 5647  254.471    4.471    3.299   34.879   27.639    0.371    1.011 
 5648  254.644    4.471    3.299   34.879   27.639    0.371    1.011 
 5649  254.818    4.471    3.299   34.879   27.640    0.371    1.011 
 5650  254.991    4.471    3.299   34.879   27.640    0.371    1.011 
 5651  255.164    4.471    3.299   34.879   27.640    0.371    1.011 
 5652  255.338    4.470    3.299   34.879   27.640    0.371    1.011 
 5653  255.685    4.470    3.299   34.879   27.640    0.371    1.011 
 5654  255.858    4.470    3.299   34.879   27.640    0.394    1.011 
 5655  256.032    4.470    3.299   34.880   27.640    0.394    1.011 
 5656  256.205    4.469    3.299   34.880   27.640    0.394    1.011 
 5657  256.379    4.469    3.299   34.880   27.640    0.394    1.011 
 5658  256.552    4.469    3.299   34.880   27.640    0.394    1.011 
 5659  256.726    4.469    3.299   34.880   27.640    0.394    1.011 
 5660  256.899    4.469    3.299   34.880   27.640    0.394    1.011 
 5662  257.073    4.469    3.299   34.880   27.640    0.394    1.011 
 5664  257.246    4.468    3.299   34.880   27.640    0.394    1.011 
 5665  257.419    4.468    3.299   34.880   27.640    0.394    1.008 
 5670  257.593    4.468    3.299   34.880   27.640    0.348    1.008 
 5677  257.766    4.468    3.299   34.880   27.640    0.324    1.008 
 5683  257.940    4.470    3.299   34.880   27.641    0.371    1.008 
 5685  258.113    4.470    3.299   34.880   27.641    0.371    1.008 
 5688  258.287    4.470    3.299   34.880   27.641    0.371    1.008 
 5689  258.460    4.470    3.299   34.881   27.641    0.371    1.008 
 5691  258.634    4.471    3.299   34.881   27.641    0.371    1.008 
 5692  258.807    4.472    3.299   34.881   27.641    0.371    1.008 
 5694  258.981    4.475    3.300   34.881   27.641    0.348    1.008 
 5695  259.154    4.475    3.300   34.881   27.641    0.348    1.008 
 5696  259.328    4.475    3.300   34.881   27.641    0.371    1.008 
 5697  259.501    4.475    3.300   34.881   27.641    0.371    1.008 
 5698  259.674    4.476    3.300   34.882   27.642    0.371    1.008 
 5700  259.848    4.476    3.300   34.883   27.642    0.371    1.008 
 5701  260.021    4.476    3.300   34.883   27.642    0.371    1.008 
 5702  260.195    4.476    3.300   34.883   27.642    0.371    1.008 
 5703  260.368    4.477    3.300   34.883   27.642    0.371    1.008 
 5704  260.542    4.478    3.300   34.883   27.642    0.371    1.008 
 5706  260.889    4.479    3.300   34.884   27.642    0.417    1.008 
 5708  261.062    4.479    3.300   34.884   27.642    0.417    1.008 
 5709  261.236    4.483    3.301   34.884   27.642    0.417    1.008 
 5710  261.409    4.484    3.301   34.884   27.642    0.417    1.008 
 5712  261.582    4.485    3.301   34.884   27.642    0.417    1.008 
 5714  261.756    4.494    3.302   34.885   27.642    0.417    1.008 
 5716  261.929    4.498    3.302   34.886   27.642    0.417    1.008 
 5717  262.103    4.500    3.303   34.886   27.642    0.417    1.008 
 5720  262.276    4.504    3.303   34.887   27.642    0.394    1.008 
 5723  262.450    4.509    3.303   34.887   27.642    0.371    1.008 
 5727  262.623    4.528    3.306   34.890   27.642    0.371    1.004 
 5734  262.797    4.533    3.306   34.890   27.642    0.394    1.004 
 5741  262.970    4.537    3.306   34.891   27.642    0.371    1.004 
 5743  263.144    4.543    3.307   34.891   27.642    0.371    1.004 
 5745  263.317    4.545    3.307   34.892   27.642    0.371    1.004 
 5748  263.491    4.565    3.309   34.892   27.642    0.371    1.004 
 5749  263.664    4.567    3.309   34.897   27.642    0.371    1.004 
 5750  263.837    4.569    3.310   34.900   27.642    0.371    1.004 
 5752  264.011    4.612    3.314   34.901   27.642    0.371    1.004 
 5753  264.184    4.612    3.314   34.901   27.642    0.371    1.004 
 5754  264.358    4.612    3.314   34.901   27.643    0.348    1.004 
 5755  264.531    4.612    3.314   34.901   27.645    0.348    1.004 
 5756  264.705    4.613    3.315   34.911   27.649    0.348    1.004 
 5757  264.878    4.613    3.315   34.911   27.649    0.348    1.004 
 5758  265.052    4.613    3.315   34.911   27.649    0.348    1.004 
 5759  265.225    4.613    3.315   34.911   27.649    0.348    1.004 
 5760  265.399    4.613    3.315   34.911   27.649    0.371    1.004 
 5761  265.572    4.613    3.315   34.911   27.649    0.371    1.004 
 5762  265.919    4.613    3.315   34.911   27.649    0.371    1.004 
 5764  266.266    4.612    3.315   34.911   27.649    0.371    1.004 
 5765  266.439    4.612    3.315   34.911   27.649    0.371    1.004 
 5766  266.613    4.612    3.315   34.911   27.649    0.371    1.004 
 5767  266.786    4.612    3.315   34.911   27.649    0.348    1.004 
 5768  266.960    4.612    3.315   34.911   27.649    0.371    1.004 
 5769  267.133    4.611    3.314   34.910   27.649    0.371    1.004 
 5771  267.480    4.609    3.314   34.909   27.649    0.371    1.004 
 5773  267.827    4.604    3.314   34.908   27.649    0.348    1.004 
 5775  268.000    4.596    3.313   34.908   27.649    0.371    1.004 
 5776  268.174    4.596    3.313   34.908   27.649    0.371    1.004 
 5778  268.347    4.594    3.313   34.908   27.649    0.371    1.004 
 5779  268.521    4.594    3.313   34.908   27.649    0.371    1.004 
 5781  268.694    4.592    3.313   34.908   27.649    0.348    1.004 
 5783  268.868    4.592    3.313   34.906   27.649    0.348    1.004 
 5786  269.041    4.591    3.313   34.906   27.648    0.371    1.000 
 5790  269.214    4.590    3.313   34.906   27.648    0.394    1.000 
 5793  269.388    4.590    3.312   34.906   27.648    0.394    1.000 
 5796  269.561    4.589    3.312   34.906   27.648    0.394    1.000 
 5799  269.735    4.588    3.312   34.904   27.648    0.394    1.000 
 5801  269.908    4.572    3.312   34.904   27.648    0.394    1.000 
 5802  270.082    4.571    3.311   34.906   27.648    0.394    1.000 
 5803  270.255    4.569    3.311   34.906   27.648    0.394    1.000 
 5805  270.429    4.557    3.310   34.904   27.648    0.394    1.000 
 5806  270.602    4.554    3.309   34.902   27.648    0.394    1.000 
 5807  270.776    4.554    3.309   34.902   27.648    0.394    1.000 
 5808  270.949    4.554    3.309   34.901   27.648    0.394    1.000 
 5809  271.122    4.553    3.309   34.900   27.648    0.394    1.000 
 5810  271.296    4.552    3.309   34.900   27.648    0.394    1.000 
 5811  271.469    4.552    3.309   34.900   27.647    0.394    1.000 
 5812  271.643    4.550    3.309   34.900   27.647    0.371    1.000 
 5813  271.816    4.548    3.309   34.900   27.647    0.371    1.000 
 5814  271.990    4.547    3.309   34.900   27.647    0.371    1.000 
 5815  272.163    4.547    3.308   34.896   27.645    0.371    1.000 
 5816  272.337    4.547    3.308   34.896   27.645    0.371    1.000 
 5817  272.510    4.546    3.308   34.896   27.645    0.371    1.000 
 5818  272.684    4.546    3.308   34.896   27.645    0.371    1.000 
 5819  272.857    4.546    3.308   34.896   27.645    0.371    1.000 
 5820  273.030    4.546    3.308   34.896   27.645    0.371    1.000 
 5821  273.204    4.546    3.308   34.896   27.645    0.371    1.000 
 5822  273.377    4.546    3.308   34.896   27.645    0.348    1.000 
 5823  273.551    4.546    3.308   34.896   27.645    0.348    1.000 
 5825  273.724    4.546    3.308   34.896   27.645    0.371    1.000 
 5826  273.898    4.546    3.308   34.896   27.645    0.371    1.000 
 5828  274.071    4.546    3.308   34.896   27.645    0.371    1.000 
 5831  274.245    4.546    3.308   34.896   27.645    0.371    1.000 
 5833  274.418    4.544    3.308   34.896   27.645    0.371    1.000 
 5840  274.591    4.544    3.308   34.897   27.645    0.371    1.000 
 5851  274.765    4.544    3.308   34.897   27.646    0.371    1.000 
 5853  274.938    4.544    3.308   34.897   27.646    0.371    1.000 
 5855  275.112    4.544    3.308   34.897   27.646    0.394    1.000 
 5857  275.285    4.492    3.306   34.897   27.651    0.371    1.000 
 5859  275.459    4.460    3.301   34.897   27.655    0.371    1.000 
 5860  275.632    4.460    3.300   34.897   27.655    0.371    1.000 
 5861  275.806    4.452    3.300   34.897   27.656    0.394    1.000 
 5862  275.979    4.452    3.300   34.897   27.656    0.371    1.000 
 5864  276.152    4.421    3.297   34.897   27.659    0.394    1.000 
 5865  276.326    4.403    3.296   34.897   27.660    0.394    1.000 
 5866  276.499    4.383    3.294   34.895   27.660    0.394    1.000 
 5867  276.673    4.362    3.291   34.892   27.660    0.371    1.000 
 5868  276.846    4.357    3.290   34.891   27.660    0.371    1.000 
 5869  277.020    4.333    3.289   34.888   27.660    0.394    1.000 
 5870  277.193    4.325    3.287   34.887   27.660    0.394    1.000 
 5871  277.367    4.302    3.286   34.882   27.660    0.394    1.000 
 5872  277.540    4.285    3.284   34.880   27.660    0.371    1.000 
 5874  277.713    4.235    3.279   34.880   27.660    0.371    1.000 
 5875  277.887    4.233    3.278   34.873   27.660    0.371    1.000 
 5876  278.060    4.230    3.277   34.872   27.660    0.371    1.000 
 5878  278.234    4.222    3.277   34.871   27.660    0.371    1.000 
 5880  278.407    4.220    3.277   34.870   27.660    0.417    1.000 
 5883  278.581    4.213    3.276   34.870   27.660    0.417    1.000 
 5887  278.754    4.208    3.276   34.868   27.659    0.371    0.996 
 5892  278.928    4.195    3.274   34.866   27.659    0.371    0.996 
 5893  279.101    4.194    3.274   34.865   27.659    0.371    0.996 
 5897  279.275    4.188    3.274   34.865   27.659    0.371    0.996 
 5899  279.448    4.187    3.273   34.864   27.659    0.371    0.996 
 5901  279.621    4.187    3.273   34.864   27.658    0.371    0.996 
 5902  279.795    4.186    3.273   34.863   27.658    0.371    0.996 
 5904  279.968    4.184    3.273   34.863   27.658    0.371    0.996 
 5905  280.142    4.182    3.273   34.862   27.658    0.371    0.996 
 5906  280.315    4.181    3.273   34.860   27.656    0.371    0.996 
 5907  280.489    4.181    3.273   34.859   27.656    0.371    0.996 
 5908  280.662    4.180    3.273   34.859   27.656    0.371    0.996 
 5909  281.009    4.179    3.272   34.859   27.655    0.371    0.996 
 5910  281.182    4.177    3.272   34.859   27.655    0.371    0.996 
 5911  281.356    4.177    3.272   34.858   27.655    0.371    0.996 
 5912  281.529    4.177    3.272   34.858   27.655    0.371    0.996 
 5913  281.876    4.177    3.272   34.857   27.655    0.371    0.996 
 5914  282.050    4.177    3.272   34.857   27.655    0.371    0.996 
 5915  282.223    4.176    3.272   34.857   27.655    0.371    0.996 
 5916  282.396    4.176    3.272   34.857   27.655    0.371    0.996 
 5917  282.570    4.175    3.272   34.857   27.655    0.371    0.996 
 5918  282.743    4.174    3.272   34.857   27.655    0.371    0.996 
 5919  283.090    4.165    3.271   34.857   27.655    0.371    0.996 
 5921  283.437    4.163    3.270   34.857   27.655    0.371    0.996 
 5922  283.611    4.163    3.270   34.857   27.655    0.394    0.996 
 5923  283.784    4.161    3.270   34.857   27.655    0.394    0.996 
 5924  283.957    4.160    3.270   34.857   27.655    0.394    0.996 
 5926  284.131    4.151    3.270   34.857   27.655    0.394    0.996 
 5927  284.304    4.145    3.270   34.857   27.655    0.394    0.996 
 5928  284.478    4.144    3.269   34.856   27.655    0.394    0.996 
 5929  284.651    4.141    3.269   34.855   27.655    0.394    0.996 
 5931  284.825    4.138    3.269   34.853   27.655    0.371    0.996 
 5932  284.998    4.138    3.269   34.851   27.655    0.371    0.996 
 5935  285.172    4.127    3.267   34.850   27.655    0.394    0.996 
 5937  285.345    4.125    3.267   34.850   27.655    0.394    0.996 
 5939  285.518    4.123    3.267   34.851   27.655    0.348    0.996 
 5942  285.692    4.120    3.267   34.851   27.655    0.348    0.996 
 5945  285.865    4.119    3.267   34.851   27.655    0.348    0.993 
 5949  286.039    4.118    3.266   34.851   27.655    0.348    0.993 
 5951  286.212    4.118    3.266   34.850   27.655    0.348    0.993 
 5954  286.386    4.118    3.266   34.850   27.655    0.348    0.993 
 5958  286.559    4.118    3.266   34.850   27.655    0.348    0.993 
 5960  286.732    4.118    3.266   34.850   27.655    0.348    0.993 
 5963  286.906    4.118    3.266   34.850   27.655    0.324    0.993 
 5965  287.079    4.117    3.266   34.850   27.655    0.348    0.993 
 5968  287.253    4.106    3.266   34.849   27.655    0.348    0.993 
 5969  287.426    4.103    3.265   34.849   27.656    0.348    0.993 
 5970  287.600    4.102    3.265   34.849   27.656    0.348    0.993 
 5972  287.773    4.100    3.265   34.849   27.656    0.348    0.993 
 5974  287.947    4.093    3.264   34.849   27.656    0.348    0.993 
 5975  288.120    4.091    3.264   34.849   27.657    0.348    0.993 
 5976  288.293    4.090    3.264   34.849   27.657    0.348    0.993 
 5978  288.467    4.089    3.264   34.849   27.657    0.348    0.993 
 5979  288.640    4.088    3.264   34.849   27.657    0.371    0.993 
 5981  288.814    4.081    3.263   34.850   27.658    0.348    0.993 
 5982  288.987    4.080    3.263   34.850   27.658    0.348    0.993 
 5984  289.161    4.080    3.263   34.850   27.658    0.348    0.993 
 5986  289.334    4.080    3.263   34.850   27.658    0.371    0.993 
 5988  289.508    4.080    3.263   34.850   27.658    0.371    0.993 
 5991  289.681    4.080    3.263   34.850   27.658    0.371    0.993 
 5994  289.854    4.085    3.263   34.850   27.658    0.371    0.993 
 5997  290.028    4.088    3.264   34.850   27.658    0.371    0.993 
 5999  290.201    4.089    3.264   34.850   27.658    0.371    0.993 
 6004  290.375    4.089    3.264   34.850   27.658    0.371    0.993 
 6006  290.548    4.089    3.264   34.850   27.658    0.371    0.993 
 6008  290.722    4.089    3.264   34.850   27.658    0.371    0.993 
 6010  290.895    4.089    3.264   34.850   27.658    0.371    0.993 
 6011  291.068    4.089    3.264   34.850   27.658    0.371    0.993 
 6013  291.242    4.089    3.264   34.850   27.658    0.371    0.993 
 6015  291.415    4.089    3.264   34.850   27.658    0.371    0.993 
 6016  291.589    4.089    3.264   34.850   27.658    0.348    0.993 
 6018  291.762    4.089    3.264   34.850   27.658    0.348    0.993 
 6019  291.936    4.089    3.264   34.850   27.658    0.348    0.993 
 6020  292.109    4.089    3.264   34.850   27.658    0.371    0.993 
 6021  292.282    4.090    3.264   34.849   27.656    0.371    0.993 
 6023  292.456    4.092    3.264   34.847   27.655    0.371    0.993 
 6024  292.629    4.092    3.264   34.846   27.655    0.394    0.993 
 6025  292.803    4.092    3.264   34.846   27.654    0.371    0.993 
 6026  292.976    4.092    3.264   34.846   27.654    0.371    0.993 
 6027  293.150    4.093    3.264   34.846   27.654    0.371    0.993 
 6029  293.323    4.093    3.264   34.846   27.654    0.394    0.993 
 6030  293.497    4.093    3.264   34.846   27.654    0.394    0.989 
 6031  293.670    4.093    3.264   34.846   27.654    0.371    0.989 
 6033  293.843    4.093    3.264   34.846   27.654    0.394    0.989 
 6034  294.017    4.093    3.264   34.846   27.654    0.394    0.989 
 6035  294.190    4.093    3.264   34.846   27.654    0.394    0.989 
 6036  294.364    4.093    3.264   34.846   27.654    0.394    0.989 
 6038  294.537    4.093    3.264   34.846   27.654    0.394    0.989 
 6039  294.711    4.092    3.264   34.846   27.654    0.394    0.989 
 6040  294.884    4.091    3.264   34.846   27.654    0.394    0.989 
 6041  295.057    4.091    3.264   34.846   27.655    0.394    0.989 
 6043  295.231    4.090    3.264   34.847   27.655    0.371    0.989 
 6044  295.404    4.088    3.264   34.849   27.657    0.371    0.989 
 6045  295.578    4.087    3.264   34.850   27.658    0.371    0.989 
 6047  295.925    4.086    3.264   34.850   27.658    0.371    0.989 
 6049  296.098    4.086    3.264   34.850   27.658    0.371    0.989 
 6050  296.445    4.086    3.264   34.850   27.658    0.371    0.989 
 6051  296.618    4.086    3.264   34.850   27.658    0.371    0.989 
 6053  296.792    4.086    3.264   34.850   27.658    0.371    0.989 
 6054  297.139    4.086    3.264   34.850   27.658    0.371    0.989 
 6056  297.312    4.086    3.264   34.850   27.658    0.371    0.989 
 6057  297.485    4.086    3.264   34.850   27.658    0.371    0.989 
 6058  297.659    4.086    3.264   34.850   27.658    0.371    0.989 
 6059  297.832    4.086    3.264   34.850   27.658    0.371    0.989 
 6060  298.006    4.086    3.264   34.850   27.658    0.371    0.989 
 6062  298.179    4.091    3.264   34.850   27.658    0.371    0.989 
 6063  298.353    4.092    3.265   34.850   27.658    0.371    0.989 
 6064  298.526    4.094    3.265   34.850   27.657    0.371    0.989 
 6065  298.699    4.096    3.265   34.850   27.657    0.371    0.989 
 6068  298.873    4.097    3.265   34.850   27.657    0.371    0.989 
 6069  299.046    4.097    3.265   34.850   27.657    0.371    0.989 
 6072  299.220    4.099    3.265   34.850   27.657    0.371    0.989 
 6074  299.393    4.100    3.265   34.850   27.657    0.371    0.989 
 6078  299.567    4.101    3.266   34.850   27.657    0.371    0.989 
 6081  299.740    4.102    3.266   34.850   27.657    0.394    0.989 
 6085  299.913    4.105    3.266   34.850   27.657    0.371    0.989 
 6088  300.087    4.105    3.266   34.850   27.657    0.417    0.989 
 6091  300.260    4.106    3.266   34.850   27.657    0.371    0.989 
 6094  300.434    4.107    3.266   34.850   27.657    0.371    0.985 
 6096  300.607    4.107    3.266   34.850   27.657    0.371    0.985 
 6098  300.781    4.108    3.266   34.850   27.657    0.371    0.985 
 6100  300.954    4.108    3.266   34.851   27.657    0.371    0.985 
 6101  301.127    4.108    3.266   34.852   27.657    0.371    0.985 
 6102  301.301    4.108    3.266   34.852   27.658    0.371    0.985 
 6104  301.648    4.108    3.266   34.852   27.658    0.371    0.985 
 6105  301.821    4.108    3.266   34.852   27.658    0.371    0.985 
 6106  301.995    4.109    3.267   34.857   27.661    0.371    0.985 
 6108  302.168    4.110    3.267   34.857   27.661    0.371    0.985 
 6110  302.515    4.110    3.267   34.857   27.661    0.371    0.985 
 6111  302.688    4.110    3.267   34.857   27.661    0.371    0.985 
 6112  302.862    4.110    3.267   34.857   27.661    0.371    0.985 
 6113  303.035    4.110    3.267   34.857   27.661    0.371    0.985 
 6114  303.209    4.110    3.267   34.857   27.661    0.371    0.985 
 6116  303.382    4.110    3.267   34.857   27.661    0.348    0.985 
 6117  303.555    4.110    3.267   34.857   27.661    0.348    0.985 
 6119  303.729    4.110    3.267   34.857   27.661    0.348    0.985 
 6120  303.902    4.110    3.267   34.857   27.661    0.348    0.985 
 6122  304.076    4.109    3.267   34.857   27.661    0.371    0.985 
 6124  304.249    4.109    3.267   34.857   27.661    0.348    0.985 
 6128  304.423    4.108    3.267   34.857   27.661    0.348    0.985 
 6134  304.596    4.108    3.267   34.857   27.661    0.371    0.985 
 6140  304.769    4.107    3.267   34.857   27.662    0.394    0.985 
 6143  304.943    4.106    3.267   34.857   27.662    0.348    0.985 
 6146  305.116    4.102    3.266   34.858   27.662    0.371    0.985 
 6147  305.290    4.101    3.266   34.858   27.662    0.348    0.985 
 6148  305.463    4.099    3.266   34.858   27.663    0.371    0.985 
 6150  305.637    4.098    3.266   34.858   27.663    0.348    0.985 
 6151  305.810    4.098    3.266   34.858   27.663    0.348    0.985 
 6153  305.983    4.097    3.266   34.858   27.663    0.348    0.982 
 6154  306.157    4.097    3.266   34.858   27.663    0.348    0.982 
 6155  306.330    4.097    3.266   34.858   27.663    0.348    0.982 
 6156  306.504    4.097    3.266   34.858   27.663    0.348    0.982 
 6157  306.677    4.096    3.266   34.858   27.663    0.348    0.982 
 6158  306.851    4.096    3.266   34.858   27.663    0.348    0.982 
 6159  307.024    4.096    3.266   34.858   27.663    0.348    0.982 
 6160  307.371    4.096    3.266   34.858   27.663    0.371    0.982 
 6161  307.544    4.096    3.266   34.858   27.663    0.371    0.982 
 6162  307.718    4.096    3.266   34.858   27.663    0.371    0.982 
 6163  307.891    4.096    3.266   34.858   27.663    0.348    0.982 
 6164  308.064    4.096    3.266   34.858   27.663    0.371    0.982 
 6165  308.238    4.096    3.266   34.858   27.663    0.348    0.982 
 6166  308.411    4.096    3.266   34.858   27.663    0.324    0.982 
 6167  308.758    4.096    3.266   34.858   27.663    0.324    0.982 
 6169  308.932    4.096    3.266   34.858   27.663    0.348    0.982 
 6170  309.278    4.096    3.266   34.858   27.663    0.348    0.982 
 6171  309.452    4.096    3.266   34.857   27.663    0.348    0.982 
 6173  309.625    4.096    3.266   34.857   27.663    0.371    0.982 
 6174  309.799    4.095    3.266   34.857   27.663    0.371    0.982 
 6175  309.972    4.095    3.266   34.857   27.663    0.371    0.982 
 6176  310.146    4.095    3.266   34.857   27.663    0.394    0.982 
 6177  310.319    4.095    3.266   34.857   27.663    0.371    0.982 
 6179  310.492    4.095    3.266   34.857   27.663    0.371    0.982 
 6180  310.666    4.095    3.266   34.857   27.662    0.371    0.982 
 6182  310.839    4.095    3.266   34.857   27.662    0.371    0.982 
 6185  311.013    4.091    3.265   34.854   27.661    0.371    0.982 
 6186  311.186    4.091    3.265   34.854   27.661    0.371    0.982 
 6188  311.359    4.091    3.265   34.854   27.661    0.371    0.982 
 6191  311.533    4.091    3.265   34.854   27.661    0.371    0.982 
 6193  311.706    4.090    3.265   34.854   27.661    0.371    0.982 
 6195  311.880    4.090    3.265   34.854   27.661    0.348    0.982 
 6197  312.053    4.088    3.265   34.854   27.661    0.348    0.982 
 6199  312.227    4.087    3.265   34.854   27.661    0.348    0.982 
 6201  312.400    4.086    3.265   34.854   27.661    0.348    0.982 
 6203  312.573    4.086    3.265   34.854   27.661    0.348    0.982 
 6204  312.747    4.086    3.265   34.854   27.661    0.348    0.982 
 6205  312.920    4.086    3.265   34.854   27.661    0.348    0.982 
 6207  313.094    4.085    3.265   34.854   27.661    0.348    0.982 
 6209  313.267    4.085    3.265   34.854   27.661    0.348    0.982 
 6210  313.441    4.085    3.265   34.854   27.661    0.348    0.982 
 6212  313.787    4.085    3.265   34.854   27.661    0.348    0.982 
 6214  313.961    4.085    3.265   34.854   27.661    0.348    0.982 
 6215  314.134    4.085    3.265   34.854   27.661    0.348    0.982 
 6216  314.308    4.085    3.265   34.854   27.661    0.348    0.982 
 6217  314.481    4.085    3.265   34.854   27.661    0.348    0.982 
 6218  314.654    4.084    3.265   34.854   27.661    0.348    0.982 
 6220  314.828    4.084    3.265   34.854   27.661    0.371    0.982 
 6221  315.001    4.084    3.265   34.854   27.661    0.371    0.982 
 6222  315.175    4.084    3.265   34.854   27.661    0.371    0.982 
 6223  315.348    4.084    3.265   34.854   27.661    0.371    0.982 
 6225  315.522    4.084    3.265   34.854   27.661    0.371    0.982 
 6226  315.695    4.084    3.265   34.854   27.661    0.371    0.982 
 6228  315.868    4.084    3.265   34.854   27.661    0.394    0.982 
 6230  316.042    4.084    3.265   34.854   27.661    0.394    0.982 
 6231  316.215    4.084    3.265   34.854   27.661    0.394    0.982 
 6234  316.389    4.086    3.265   34.854   27.661    0.394    0.982 
 6236  316.562    4.087    3.265   34.854   27.661    0.394    0.982 
 6238  316.735    4.087    3.265   34.854   27.661    0.371    0.982 
 6241  316.909    4.087    3.265   34.854   27.661    0.348    0.982 
 6244  317.082    4.087    3.265   34.854   27.661    0.348    0.982 
 6248  317.256    4.088    3.265   34.854   27.661    0.348    0.978 
 6249  317.429    4.088    3.265   34.854   27.661    0.348    0.978 
 6251  317.603    4.089    3.265   34.854   27.661    0.348    0.978 
 6253  317.776    4.089    3.265   34.854   27.661    0.371    0.978 
 6255  317.949    4.089    3.266   34.858   27.664    0.324    0.978 
 6256  318.123    4.089    3.266   34.858   27.664    0.324    0.978 
 6257  318.296    4.090    3.266   34.858   27.664    0.324    0.978 
 6258  318.470    4.090    3.266   34.858   27.664    0.324    0.978 
 6260  318.643    4.090    3.266   34.858   27.664    0.371    0.978 
 6261  318.816    4.090    3.266   34.858   27.664    0.371    0.978 
 6263  318.990    4.090    3.266   34.858   27.664    0.371    0.978 
 6264  319.163    4.090    3.266   34.858   27.664    0.371    0.978 
 6265  319.337    4.090    3.266   34.858   27.664    0.371    0.978 
 6266  319.510    4.090    3.266   34.858   27.664    0.371    0.978 
 6267  319.683    4.090    3.266   34.858   27.664    0.371    0.978 
 6269  319.857    4.090    3.266   34.858   27.664    0.371    0.978 
 6270  320.030    4.090    3.266   34.858   27.664    0.371    0.978 
 6272  320.204    4.087    3.266   34.858   27.664    0.371    0.978 
 6273  320.377    4.086    3.266   34.858   27.664    0.371    0.978 
 6275  320.551    4.086    3.265   34.854   27.662    0.371    0.978 
 6276  320.724    4.085    3.265   34.854   27.662    0.371    0.978 
 6277  320.897    4.083    3.265   34.854   27.662    0.371    0.978 
 6280  321.071    4.082    3.265   34.854   27.662    0.348    0.978 
 6282  321.244    4.082    3.265   34.854   27.662    0.348    0.978 
 6285  321.418    4.082    3.265   34.854   27.662    0.348    0.978 
 6287  321.591    4.081    3.265   34.854   27.662    0.348    0.978 
 6291  321.764    4.081    3.265   34.854   27.662    0.348    0.978 
 6293  321.938    4.081    3.265   34.854   27.662    0.324    0.978 
 6295  322.111    4.081    3.265   34.854   27.662    0.324    0.978 
 6297  322.285    4.081    3.265   34.854   27.662    0.324    0.978 
 6298  322.458    4.081    3.265   34.854   27.662    0.324    0.978 
 6300  322.631    4.081    3.265   34.854   27.662    0.324    0.978 
 6301  322.805    4.081    3.265   34.854   27.662    0.324    0.978 
 6303  322.978    4.081    3.265   34.854   27.662    0.324    0.978 
 6304  323.152    4.081    3.265   34.854   27.662    0.324    0.978 
 6306  323.499    4.080    3.265   34.854   27.662    0.324    0.978 
 6307  323.672    4.080    3.265   34.854   27.662    0.348    0.978 
 6309  323.845    4.080    3.265   34.854   27.662    0.324    0.978 
 6311  324.192    4.080    3.265   34.854   27.662    0.324    0.978 
 6313  324.366    4.080    3.265   34.854   27.662    0.348    0.978 
 6316  324.712    4.079    3.265   34.855   27.662    0.371    0.978 
 6317  324.886    4.079    3.265   34.855   27.663    0.371    0.978 
 6319  325.059    4.078    3.265   34.855   27.663    0.371    0.978 
 6321  325.406    4.078    3.265   34.855   27.663    0.371    0.978 
 6322  325.579    4.078    3.265   34.856   27.663    0.371    0.978 
 6325  325.753    4.078    3.265   34.856   27.663    0.371    0.978 
 6326  325.926    4.077    3.265   34.856   27.664    0.371    0.975 
 6327  326.100    4.077    3.265   34.856   27.664    0.371    0.975 
 6328  326.273    4.077    3.265   34.856   27.664    0.371    0.975 
 6330  326.447    4.075    3.265   34.856   27.664    0.371    0.975 
 6333  326.620    4.073    3.265   34.856   27.664    0.371    0.975 
 6334  326.793    4.072    3.265   34.856   27.664    0.371    0.975 
 6336  326.967    4.068    3.265   34.856   27.665    0.324    0.975 
 6338  327.140    4.064    3.264   34.857   27.666    0.324    0.975 
 6339  327.314    4.063    3.264   34.858   27.666    0.324    0.975 
 6341  327.487    4.061    3.264   34.858   27.667    0.371    0.975 
 6342  327.660    4.060    3.264   34.858   27.667    0.371    0.975 
 6345  327.834    4.058    3.263   34.858   27.667    0.324    0.975 
 6346  328.007    4.057    3.263   34.858   27.668    0.324    0.975 
 6348  328.181    4.056    3.263   34.859   27.668    0.348    0.975 
 6350  328.354    4.055    3.263   34.859   27.668    0.371    0.975 
 6351  328.527    4.053    3.263   34.858   27.668    0.394    0.975 
 6353  328.701    4.052    3.263   34.858   27.668    0.394    0.975 
 6355  328.874    4.052    3.263   34.858   27.668    0.394    0.975 
 6357  329.048    4.051    3.263   34.859   27.668    0.394    0.975 
 6359  329.221    4.051    3.263   34.859   27.668    0.394    0.975 
 6361  329.394    4.050    3.263   34.859   27.669    0.394    0.975 
 6363  329.568    4.050    3.263   34.859   27.669    0.394    0.975 
 6364  329.741    4.050    3.263   34.859   27.669    0.394    0.975 
 6366  329.915    4.049    3.263   34.859   27.669    0.394    0.975 
 6369  330.088    4.045    3.262   34.859   27.669    0.394    0.975 
 6370  330.261    4.041    3.262   34.859   27.670    0.394    0.975 
 6373  330.435    4.039    3.262   34.859   27.670    0.371    0.975 
 6374  330.608    4.038    3.262   34.859   27.670    0.371    0.975 
 6376  330.782    4.037    3.262   34.859   27.670    0.371    0.975 
 6378  330.955    4.037    3.262   34.859   27.670    0.371    0.975 
 6381  331.128    4.036    3.262   34.859   27.670    0.371    0.975 
 6382  331.302    4.035    3.262   34.859   27.670    0.371    0.975 
 6384  331.475    4.033    3.261   34.859   27.670    0.348    0.975 
 6386  331.649    4.024    3.261   34.859   27.671    0.371    0.975 
 6388  331.822    4.023    3.260   34.859   27.671    0.371    0.975 
 6390  331.996    4.023    3.260   34.860   27.671    0.348    0.975 
 6391  332.169    4.023    3.260   34.861   27.671    0.371    0.975 
 6394  332.342    4.023    3.260   34.861   27.671    0.371    0.971 
 6395  332.516    4.023    3.260   34.861   27.672    0.371    0.971 
 6397  332.689    4.023    3.260   34.861   27.672    0.371    0.971 
 6398  332.863    4.023    3.260   34.860   27.672    0.348    0.971 
 6399  333.036    4.023    3.261   34.860   27.672    0.348    0.971 
 6401  333.209    4.023    3.261   34.858   27.672    0.348    0.971 
 6403  333.383    4.023    3.261   34.858   27.672    0.348    0.971 
 6404  333.556    4.023    3.261   34.857   27.672    0.348    0.971 
 6405  333.730    4.023    3.261   34.858   27.672    0.348    0.971 
 6407  333.903    4.024    3.261   34.860   27.672    0.348    0.971 
 6408  334.076    4.024    3.261   34.860   27.672    0.348    0.971 
 6410  334.250    4.025    3.261   34.861   27.672    0.324    0.971 
 6411  334.423    4.025    3.261   34.861   27.672    0.348    0.971 
 6413  334.597    4.026    3.261   34.861   27.671    0.348    0.971 
 6414  334.770    4.027    3.261   34.861   27.671    0.348    0.971 
 6415  334.943    4.028    3.261   34.861   27.671    0.348    0.971 
 6417  335.117    4.028    3.261   34.860   27.671    0.348    0.971 
 6419  335.290    4.031    3.261   34.860   27.670    0.324    0.971 
 6421  335.464    4.031    3.262   34.858   27.670    0.324    0.971 
 6424  335.637    4.031    3.262   34.857   27.669    0.348    0.971 
 6426  335.810    4.031    3.262   34.856   27.669    0.324    0.971 
 6427  335.984    4.031    3.262   34.856   27.668    0.324    0.971 
 6430  336.157    4.031    3.262   34.854   27.667    0.348    0.971 
 6433  336.331    4.030    3.261   34.854   27.667    0.348    0.971 
 6434  336.504    4.030    3.261   34.854   27.667    0.348    0.971 
 6438  336.677    4.029    3.261   34.854   27.667    0.348    0.971 
 6440  336.851    4.029    3.261   34.854   27.667    0.348    0.971 
 6442  337.024    4.029    3.261   34.854   27.667    0.324    0.971 
 6443  337.198    4.029    3.261   34.854   27.667    0.348    0.971 
 6444  337.371    4.029    3.261   34.854   27.667    0.348    0.971 
 6445  337.544    4.029    3.261   34.854   27.667    0.348    0.971 
 6447  337.718    4.029    3.261   34.854   27.667    0.348    0.971 
 6448  337.891    4.029    3.261   34.854   27.667    0.348    0.971 
 6449  338.065    4.030    3.261   34.854   27.667    0.348    0.971 
 6450  338.238    4.030    3.261   34.854   27.667    0.348    0.971 
 6451  338.411    4.031    3.261   34.854   27.667    0.371    0.971 
 6452  338.585    4.035    3.262   34.854   27.667    0.348    0.971 
 6453  338.758    4.040    3.262   34.855   27.667    0.371    0.971 
 6454  338.932    4.044    3.263   34.857   27.668    0.348    0.971 
 6455  339.105    4.047    3.263   34.857   27.668    0.348    0.971 
 6456  339.278    4.047    3.263   34.859   27.668    0.348    0.971 
 6457  339.452    4.049    3.263   34.859   27.668    0.348    0.971 
 6458  339.625    4.053    3.264   34.859   27.668    0.348    0.971 
 6459  339.799    4.053    3.264   34.859   27.669    0.348    0.971 
 6460  339.972    4.054    3.264   34.859   27.669    0.348    0.971 
 6461  340.145    4.054    3.264   34.860   27.669    0.348    0.971 
 6462  340.319    4.055    3.264   34.860   27.669    0.348    0.971 
 6464  340.492    4.055    3.264   34.860   27.669    0.348    0.971 
 6465  340.666    4.055    3.264   34.861   27.670    0.348    0.971 
 6467  340.839    4.056    3.264   34.861   27.670    0.348    0.971 
 6468  341.012    4.056    3.264   34.861   27.670    0.348    0.971 
 6470  341.186    4.056    3.264   34.863   27.671    0.348    0.971 
 6473  341.359    4.056    3.264   34.863   27.671    0.348    0.971 
 6475  341.533    4.057    3.265   34.867   27.675    0.348    0.967 
 6477  341.706    4.057    3.265   34.867   27.675    0.348    0.967 
 6480  341.879    4.057    3.265   34.867   27.675    0.324    0.967 
 6484  342.053    4.058    3.265   34.867   27.675    0.324    0.967 
 6486  342.226    4.058    3.265   34.867   27.675    0.324    0.967 
 6488  342.400    4.058    3.265   34.867   27.675    0.324    0.967 
 6489  342.573    4.058    3.265   34.868   27.675    0.324    0.967 
 6491  342.746    4.058    3.265   34.868   27.675    0.324    0.967 
 6493  342.920    4.058    3.265   34.868   27.675    0.324    0.967 
 6494  343.093    4.058    3.265   34.868   27.675    0.324    0.967 
 6495  343.267    4.058    3.265   34.868   27.675    0.324    0.967 
 6496  343.440    4.058    3.265   34.868   27.675    0.324    0.967 
 6498  343.787    4.058    3.265   34.868   27.675    0.324    0.967 
 6499  343.960    4.058    3.265   34.868   27.675    0.324    0.967 
 6501  344.307    4.055    3.265   34.868   27.675    0.324    0.967 
 6502  344.480    4.055    3.265   34.868   27.675    0.348    0.967 
 6504  344.827    4.055    3.265   34.868   27.675    0.348    0.967 
 6505  345.000    4.055    3.265   34.867   27.675    0.348    0.967 
 6506  345.174    4.055    3.265   34.867   27.675    0.324    0.967 
 6508  345.521    4.055    3.265   34.867   27.675    0.348    0.967 
 6509  345.694    4.055    3.265   34.867   27.675    0.348    0.967 
 6510  345.867    4.054    3.265   34.867   27.675    0.348    0.967 
 6511  346.041    4.054    3.265   34.867   27.675    0.348    0.967 
 6513  346.388    4.052    3.264   34.866   27.674    0.348    0.967 
 6516  346.561    4.047    3.264   34.865   27.674    0.348    0.967 
 6517  346.908    4.046    3.264   34.863   27.672    0.348    0.967 
 6521  347.081    4.041    3.263   34.862   27.672    0.348    0.967 
 6523  347.255    4.041    3.263   34.862   27.672    0.348    0.967 
 6528  347.428    4.040    3.263   34.862   27.672    0.348    0.967 
 6531  347.601    4.041    3.263   34.862   27.672    0.348    0.967 
 6536  347.775    4.041    3.263   34.862   27.672    0.324    0.967 
 6541  347.948    4.041    3.263   34.862   27.672    0.324    0.967 
 6543  348.122    4.041    3.263   34.862   27.672    0.348    0.967 
 6546  348.295    4.038    3.263   34.861   27.672    0.348    0.967 
 6547  348.468    4.038    3.263   34.861   27.672    0.348    0.967 
 6548  348.642    4.037    3.263   34.861   27.672    0.348    0.967 
 6550  348.815    4.027    3.262   34.861   27.672    0.348    0.967 
 6551  348.988    4.024    3.262   34.861   27.673    0.371    0.967 
 6553  349.162    4.019    3.262   34.861   27.674    0.348    0.967 
 6554  349.335    4.014    3.261   34.861   27.674    0.348    0.967 
 6555  349.509    4.010    3.261   34.861   27.675    0.348    0.967 
 6557  349.682    4.006    3.260   34.861   27.675    0.348    0.967 
 6558  349.855    4.005    3.260   34.862   27.676    0.371    0.967 
 6559  350.029    4.005    3.260   34.862   27.676    0.371    0.967 
 6560  350.202    4.005    3.260   34.862   27.676    0.371    0.967 
 6561  350.376    4.005    3.260   34.862   27.676    0.371    0.964 
 6563  350.722    4.004    3.260   34.862   27.676    0.371    0.964 
 6565  350.896    4.004    3.260   34.863   27.677    0.348    0.964 
 6566  351.069    4.004    3.260   34.863   27.677    0.324    0.964 
 6567  351.243    4.004    3.260   34.863   27.677    0.324    0.964 
 6569  351.416    4.003    3.260   34.863   27.677    0.324    0.964 
 6570  351.589    4.002    3.260   34.863   27.677    0.324    0.964 
 6572  351.763    4.001    3.260   34.863   27.677    0.324    0.964 
 6573  351.936    4.001    3.260   34.863   27.677    0.324    0.964 
 6574  352.110    4.001    3.260   34.863   27.677    0.348    0.964 
 6576  352.283    4.000    3.260   34.863   27.677    0.371    0.964 
 6578  352.456    4.000    3.260   34.863   27.677    0.371    0.964 
 6579  352.630    4.000    3.260   34.863   27.677    0.371    0.964 
 6581  352.803    4.000    3.260   34.863   27.677    0.371    0.964 
 6584  352.976    4.000    3.260   34.863   27.677    0.371    0.964 
 6585  353.150    4.000    3.260   34.863   27.677    0.371    0.964 
 6587  353.323    3.999    3.260   34.863   27.677    0.371    0.964 
 6590  353.497    3.999    3.259   34.855   27.671    0.371    0.964 
 6591  353.670    3.999    3.259   34.854   27.671    0.371    0.964 
 6593  353.843    3.998    3.259   34.854   27.671    0.371    0.964 
 6596  354.017    3.998    3.259   34.854   27.671    0.371    0.964 
 6597  354.190    3.998    3.259   34.854   27.671    0.371    0.964 
 6599  354.364    3.998    3.259   34.854   27.671    0.371    0.964 
 6601  354.537    3.998    3.259   34.854   27.671    0.348    0.964 
 6602  354.710    3.998    3.259   34.854   27.671    0.371    0.964 
 6604  354.884    3.997    3.259   34.854   27.671    0.371    0.964 
 6605  355.057    3.997    3.259   34.854   27.671    0.371    0.964 
 6606  355.230    3.997    3.259   34.854   27.671    0.371    0.964 
 6608  355.577    3.997    3.259   34.854   27.671    0.348    0.964 
 6610  355.751    3.998    3.259   34.854   27.671    0.348    0.964 
 6611  355.924    3.998    3.259   34.854   27.671    0.348    0.964 
 6612  356.097    3.998    3.259   34.854   27.671    0.348    0.964 
 6614  356.271    3.998    3.259   34.854   27.671    0.348    0.964 
 6616  356.618    3.998    3.259   34.854   27.671    0.348    0.964 
 6618  356.791    3.997    3.259   34.854   27.671    0.348    0.964 
 6619  356.964    3.996    3.259   34.854   27.671    0.348    0.964 
 6621  357.138    3.996    3.259   34.854   27.671    0.348    0.964 
 6622  357.311    3.993    3.259   34.857   27.674    0.348    0.964 
 6624  357.484    3.991    3.259   34.859   27.676    0.348    0.964 
 6626  357.658    3.990    3.259   34.860   27.676    0.348    0.964 
 6627  357.831    3.990    3.259   34.860   27.676    0.348    0.964 
 6629  358.005    3.987    3.259   34.863   27.678    0.348    0.964 
 6631  358.178    3.987    3.259   34.863   27.678    0.348    0.964 
 6633  358.351    3.987    3.259   34.863   27.678    0.371    0.964 
 6634  358.525    3.987    3.259   34.863   27.678    0.348    0.964 
 6636  358.698    3.987    3.259   34.863   27.678    0.371    0.964 
 6637  358.872    3.987    3.259   34.863   27.678    0.371    0.964 
 6638  359.045    3.987    3.259   34.863   27.678    0.371    0.964 
 6640  359.218    3.987    3.259   34.863   27.678    0.371    0.964 
 6641  359.392    3.987    3.259   34.863   27.678    0.371    0.964 
 6642  359.565    3.987    3.259   34.863   27.678    0.371    0.964 
 6644  359.738    3.987    3.259   34.863   27.678    0.371    0.964 
 6645  359.912    3.987    3.259   34.862   27.678    0.371    0.964 
 6646  360.085    3.988    3.259   34.861   27.677    0.371    0.964 
 6647  360.259    3.988    3.259   34.861   27.677    0.371    0.964 
 6649  360.432    3.989    3.259   34.860   27.676    0.371    0.964 
 6650  360.605    3.990    3.259   34.859   27.675    0.371    0.964 
 6652  360.779    3.990    3.259   34.859   27.675    0.371    0.964 
 6653  360.952    3.990    3.259   34.859   27.675    0.324    0.964 
 6654  361.126    3.990    3.259   34.859   27.675    0.324    0.960 
 6656  361.299    3.991    3.259   34.857   27.674    0.324    0.960 
 6657  361.472    3.991    3.259   34.857   27.674    0.324    0.960 
 6659  361.646    3.991    3.259   34.857   27.674    0.324    0.960 
 6661  361.819    3.991    3.259   34.857   27.674    0.324    0.960 
 6663  361.992    3.991    3.259   34.857   27.674    0.324    0.960 
 6665  362.166    3.991    3.259   34.857   27.673    0.324    0.960 
 6666  362.339    3.991    3.259   34.857   27.673    0.371    0.960 
 6669  362.513    3.991    3.259   34.857   27.673    0.371    0.960 
 6672  362.686    3.991    3.259   34.857   27.673    0.371    0.960 
 6674  362.859    3.991    3.259   34.857   27.673    0.371    0.960 
 6678  363.033    3.991    3.259   34.857   27.673    0.371    0.960 
 6682  363.206    3.991    3.259   34.856   27.673    0.371    0.960 
 6685  363.379    3.991    3.259   34.856   27.673    0.371    0.960 
 6687  363.553    3.991    3.259   34.856   27.673    0.348    0.960 
 6689  363.726    3.991    3.259   34.856   27.673    0.371    0.960 
 6691  363.900    3.991    3.259   34.856   27.673    0.371    0.960 
 6692  364.073    3.991    3.259   34.856   27.673    0.371    0.960 
 6694  364.246    3.991    3.259   34.856   27.673    0.348    0.960 
 6695  364.420    3.991    3.259   34.856   27.673    0.348    0.960 
 6696  364.593    3.991    3.259   34.856   27.673    0.348    0.960 
 6697  364.767    3.991    3.259   34.856   27.673    0.348    0.960 
 6698  364.940    3.991    3.259   34.856   27.673    0.348    0.960 
 6699  365.113    3.991    3.259   34.856   27.673    0.348    0.960 
 6701  365.287    3.990    3.259   34.856   27.673    0.324    0.960 
 6702  365.633    3.990    3.259   34.856   27.673    0.324    0.960 
 6704  365.807    3.990    3.259   34.856   27.673    0.324    0.960 
 6705  365.980    3.990    3.259   34.856   27.673    0.324    0.960 
 6706  366.154    3.990    3.259   34.856   27.673    0.324    0.960 
 6707  366.327    3.990    3.259   34.856   27.673    0.324    0.960 
 6708  366.500    3.990    3.259   34.856   27.673    0.324    0.960 
 6709  366.674    3.990    3.259   34.856   27.673    0.324    0.960 
 6710  366.847    3.990    3.259   34.856   27.673    0.324    0.960 
 6711  367.020    3.989    3.259   34.856   27.673    0.324    0.960 
 6713  367.194    3.989    3.259   34.856   27.673    0.324    0.960 
 6714  367.367    3.989    3.259   34.856   27.673    0.348    0.960 
 6716  367.541    3.989    3.259   34.856   27.673    0.348    0.960 
 6717  367.714    3.989    3.259   34.856   27.673    0.348    0.960 
 6720  367.887    3.989    3.259   34.856   27.673    0.348    0.960 
 6722  368.061    3.989    3.259   34.856   27.673    0.348    0.957 
 6729  368.234    3.989    3.259   34.856   27.673    0.348    0.957 
 6733  368.407    3.989    3.259   34.856   27.673    0.348    0.957 
 6736  368.581    3.989    3.259   34.856   27.673    0.348    0.957 
 6738  368.754    3.989    3.259   34.856   27.673    0.348    0.957 
 6740  368.928    3.989    3.259   34.855   27.672    0.324    0.957 
 6742  369.101    3.989    3.259   34.855   27.672    0.348    0.957 
 6743  369.274    3.989    3.259   34.855   27.672    0.324    0.957 
 6744  369.448    3.989    3.259   34.855   27.672    0.324    0.957 
 6745  369.621    3.989    3.259   34.855   27.672    0.324    0.957 
 6746  369.794    3.989    3.259   34.855   27.672    0.324    0.957 
 6747  369.968    3.989    3.259   34.855   27.672    0.301    0.957 
 6748  370.141    3.990    3.259   34.854   27.671    0.301    0.957 
 6749  370.315    3.990    3.259   34.854   27.671    0.324    0.957 
 6751  370.661    3.990    3.259   34.854   27.671    0.324    0.957 
 6752  370.835    3.990    3.259   34.854   27.671    0.324    0.957 
 6753  371.008    3.990    3.259   34.854   27.671    0.324    0.957 
 6754  371.181    3.990    3.259   34.854   27.671    0.324    0.957 
 6755  371.355    3.990    3.259   34.854   27.671    0.324    0.957 
 6756  371.528    3.989    3.259   34.854   27.671    0.324    0.957 
 6757  371.702    3.989    3.259   34.854   27.671    0.324    0.957 
 6758  371.875    3.989    3.259   34.854   27.671    0.324    0.957 
 6759  372.048    3.989    3.259   34.854   27.671    0.324    0.957 
 6760  372.222    3.990    3.259   34.854   27.671    0.324    0.957 
 6762  372.568    3.990    3.260   34.864   27.679    0.324    0.957 
 6764  372.742    3.990    3.260   34.864   27.679    0.324    0.957 
 6765  372.915    3.990    3.260   34.864   27.679    0.324    0.957 
 6768  373.089    3.990    3.260   34.864   27.679    0.324    0.957 
 6769  373.262    3.990    3.260   34.864   27.679    0.324    0.957 
 6773  373.435    3.990    3.260   34.864   27.679    0.348    0.957 
 6775  373.609    3.990    3.260   34.864   27.679    0.348    0.957 
 6780  373.782    3.990    3.260   34.864   27.679    0.348    0.957 
 6782  373.955    3.990    3.260   34.864   27.679    0.348    0.957 
 6784  374.129    3.990    3.260   34.864   27.679    0.348    0.957 
 6785  374.302    3.989    3.260   34.864   27.679    0.348    0.957 
 6788  374.476    3.989    3.260   34.864   27.679    0.348    0.957 
 6789  374.649    3.989    3.260   34.864   27.679    0.348    0.957 
 6790  374.822    3.988    3.260   34.864   27.679    0.348    0.957 
 6792  374.996    3.987    3.260   34.864   27.679    0.348    0.957 
 6793  375.169    3.987    3.259   34.854   27.672    0.348    0.957 
 6794  375.342    3.987    3.259   34.854   27.672    0.348    0.957 
 6795  375.516    3.987    3.259   34.854   27.672    0.348    0.957 
 6796  375.689    3.987    3.259   34.854   27.672    0.348    0.957 
 6797  375.863    3.987    3.259   34.854   27.672    0.348    0.957 
 6798  376.036    3.987    3.259   34.854   27.672    0.348    0.957 
 6799  376.209    3.987    3.259   34.854   27.672    0.348    0.957 
 6801  376.383    3.987    3.259   34.854   27.672    0.348    0.957 
 6802  376.556    3.987    3.259   34.854   27.672    0.348    0.957 
 6803  376.729    3.987    3.259   34.854   27.672    0.301    0.957 
 6804  376.903    3.988    3.259   34.854   27.672    0.301    0.957 
 6805  377.076    3.994    3.260   34.856   27.672    0.301    0.957 
 6806  377.249    3.994    3.260   34.856   27.672    0.278    0.957 
 6807  377.423    3.994    3.260   34.856   27.673    0.278    0.957 
 6809  377.770    3.995    3.260   34.858   27.673    0.278    0.957 
 6811  377.943    3.995    3.260   34.858   27.674    0.278    0.957 
 6813  378.116    3.995    3.260   34.858   27.674    0.301    0.957 
 6816  378.290    3.996    3.261   34.860   27.675    0.301    0.953 
 6819  378.463    3.996    3.261   34.860   27.675    0.324    0.953 
 6823  378.636    3.996    3.261   34.860   27.675    0.348    0.953 
 6827  378.810    3.996    3.261   34.860   27.675    0.371    0.953 
 6829  378.983    3.996    3.261   34.860   27.675    0.394    0.953 
 6832  379.157    3.996    3.261   34.861   27.675    0.394    0.953 
 6834  379.330    3.996    3.261   34.861   27.675    0.394    0.953 
 6837  379.503    3.997    3.261   34.861   27.675    0.394    0.953 
 6838  379.677    3.997    3.261   34.861   27.675    0.394    0.953 
 6839  379.850    4.000    3.261   34.861   27.675    0.371    0.953 
 6841  380.023    4.002    3.261   34.861   27.675    0.348    0.953 
 6842  380.197    4.002    3.261   34.861   27.675    0.371    0.953 
 6843  380.370    4.002    3.261   34.861   27.675    0.371    0.953 
 6844  380.543    4.002    3.261   34.861   27.675    0.394    0.953 
 6845  380.890    4.005    3.261   34.861   27.675    0.394    0.953 
 6847  381.064    4.011    3.262   34.861   27.676    0.371    0.953 
 6848  381.237    4.011    3.262   34.861   27.676    0.371    0.953 
 6849  381.410    4.011    3.262   34.861   27.676    0.348    0.953 
 6850  381.584    4.011    3.262   34.861   27.676    0.324    0.953 
 6851  381.757    4.011    3.262   34.861   27.676    0.324    0.953 
 6852  381.930    4.012    3.262   34.861   27.676    0.324    0.953 
 6854  382.104    4.012    3.262   34.861   27.676    0.324    0.953 
 6855  382.277    4.012    3.262   34.861   27.676    0.324    0.953 
 6856  382.451    4.013    3.262   34.861   27.676    0.348    0.953 
 6859  382.624    4.013    3.263   34.865   27.677    0.324    0.953 
 6862  382.797    4.014    3.263   34.865   27.677    0.348    0.953 
 6865  382.971    4.014    3.263   34.865   27.677    0.324    0.953 
 6868  383.144    4.014    3.263   34.865   27.677    0.348    0.953 
 6872  383.317    4.015    3.263   34.865   27.677    0.394    0.953 
 6875  383.491    4.015    3.263   34.865   27.678    0.348    0.953 
 6876  383.664    4.015    3.263   34.866   27.678    0.348    0.953 
 6879  383.837    4.016    3.263   34.866   27.678    0.324    0.953 
 6880  384.011    4.016    3.263   34.866   27.678    0.324    0.953 
 6881  384.184    4.016    3.263   34.868   27.679    0.324    0.953 
 6883  384.358    4.017    3.263   34.868   27.679    0.324    0.953 
 6884  384.704    4.018    3.263   34.868   27.679    0.324    0.953 
 6886  384.878    4.018    3.263   34.868   27.679    0.324    0.953 
 6887  385.051    4.019    3.263   34.868   27.679    0.324    0.953 
 6888  385.224    4.019    3.263   34.868   27.679    0.301    0.953 
 6889  385.571    4.020    3.263   34.868   27.679    0.301    0.953 
 6891  385.744    4.021    3.264   34.871   27.682    0.301    0.950 
 6892  385.918    4.021    3.264   34.871   27.682    0.301    0.950 
 6893  386.091    4.021    3.264   34.871   27.682    0.301    0.950 
 6894  386.265    4.021    3.264   34.871   27.682    0.301    0.950 
 6895  386.438    4.021    3.264   34.871   27.682    0.301    0.950 
 6896  386.611    4.021    3.264   34.871   27.682    0.324    0.950 
 6897  386.785    4.021    3.264   34.871   27.682    0.301    0.950 
 6898  386.958    4.021    3.264   34.871   27.682    0.324    0.950 
 6899  387.131    4.021    3.264   34.871   27.682    0.324    0.950 
 6901  387.305    4.021    3.264   34.871   27.682    0.324    0.950 
 6902  387.478    4.021    3.264   34.871   27.682    0.324    0.950 
 6904  387.651    4.023    3.264   34.869   27.680    0.324    0.950 
 6906  387.825    4.023    3.264   34.869   27.679    0.348    0.950 
 6909  387.998    4.023    3.264   34.869   27.679    0.348    0.950 
 6911  388.172    4.023    3.264   34.869   27.679    0.348    0.950 
 6915  388.345    4.023    3.264   34.869   27.679    0.348    0.950 
 6918  388.518    4.023    3.264   34.869   27.679    0.348    0.950 
 6919  388.692    4.023    3.264   34.869   27.679    0.348    0.950 
 6921  388.865    4.023    3.264   34.869   27.679    0.348    0.950 
 6924  389.038    4.023    3.264   34.869   27.679    0.348    0.950 
 6925  389.212    4.023    3.264   34.868   27.679    0.348    0.950 
 6926  389.385    4.023    3.264   34.868   27.679    0.348    0.950 
 6927  389.558    4.023    3.264   34.868   27.679    0.348    0.950 
 6928  389.732    4.022    3.264   34.868   27.679    0.348    0.950 
 6929  389.905    4.022    3.264   34.868   27.679    0.348    0.950 
 6930  390.078    4.021    3.264   34.868   27.679    0.348    0.950 
 6931  390.252    4.019    3.264   34.868   27.679    0.348    0.950 
 6932  390.425    4.019    3.264   34.868   27.679    0.348    0.950 
 6933  390.599    4.017    3.264   34.868   27.679    0.348    0.950 
 6934  390.772    4.016    3.263   34.863   27.676    0.348    0.950 
 6935  390.945    4.016    3.263   34.863   27.676    0.348    0.950 
 6936  391.119    4.016    3.263   34.863   27.676    0.348    0.950 
 6937  391.292    4.015    3.263   34.863   27.676    0.348    0.950 
 6938  391.465    4.015    3.263   34.863   27.676    0.348    0.950 
 6939  391.639    4.015    3.263   34.863   27.676    0.324    0.950 
 6940  391.812    4.015    3.263   34.863   27.676    0.324    0.950 
 6941  391.985    4.015    3.263   34.863   27.676    0.348    0.950 
 6942  392.159    4.015    3.263   34.863   27.676    0.348    0.950 
 6943  392.332    4.015    3.263   34.863   27.676    0.348    0.950 
 6944  392.505    4.015    3.263   34.863   27.676    0.348    0.950 
 6945  392.679    4.014    3.263   34.864   27.677    0.348    0.950 
 6947  392.852    4.013    3.263   34.864   27.677    0.348    0.950 
 6948  393.026    4.013    3.263   34.864   27.677    0.348    0.950 
 6950  393.199    4.013    3.263   34.865   27.677    0.348    0.950 
 6954  393.372    4.013    3.263   34.865   27.677    0.348    0.950 
 6970  393.546    4.013    3.263   34.865   27.677    0.348    0.950 
 6972  393.719    4.011    3.263   34.865   27.677    0.371    0.950 
 6974  393.892    4.011    3.263   34.865   27.678    0.348    0.950 
 6975  394.066    4.011    3.263   34.865   27.678    0.348    0.950 
 6976  394.239    4.011    3.263   34.866   27.678    0.348    0.950 
 6978  394.412    4.011    3.263   34.866   27.678    0.371    0.946 
 6979  394.586    4.011    3.263   34.866   27.678    0.371    0.950 
 6980  394.932    4.011    3.263   34.866   27.679    0.371    0.950 
 6982  395.279    4.011    3.263   34.866   27.679    0.371    0.946 
 6983  395.453    4.011    3.263   34.866   27.679    0.371    0.946 
 6984  395.626    4.012    3.263   34.866   27.679    0.371    0.946 
 6985  395.799    4.014    3.263   34.866   27.679    0.371    0.950 
 6986  396.146    4.014    3.264   34.872   27.683    0.371    0.946 
 6987  396.319    4.014    3.264   34.872   27.683    0.371    0.946 
 6988  396.493    4.014    3.264   34.872   27.683    0.371    0.946 
 6989  396.666    4.014    3.264   34.872   27.683    0.371    0.946 
 6990  396.839    4.014    3.264   34.872   27.683    0.371    0.946 
 6991  397.186    4.014    3.264   34.872   27.683    0.348    0.946 
 6993  397.359    4.014    3.264   34.872   27.683    0.348    0.946 
 6994  397.533    4.014    3.264   34.872   27.683    0.371    0.946 
 6995  397.706    4.014    3.264   34.872   27.683    0.371    0.946 
 6996  397.880    4.015    3.264   34.873   27.683    0.371    0.946 
 6997  398.053    4.015    3.264   34.873   27.683    0.348    0.946 
 6999  398.226    4.015    3.264   34.873   27.683    0.324    0.946 
 7011  398.400    4.014    3.264   34.873   27.683    0.324    0.946 
 7022  398.573    4.014    3.264   34.873   27.683    0.348    0.946 
 7024  398.746    4.014    3.264   34.872   27.683    0.371    0.946 
 7025  398.920    4.014    3.264   34.872   27.683    0.371    0.946 
 7026  399.093    4.014    3.264   34.872   27.683    0.371    0.946 
 7027  399.266    4.014    3.264   34.872   27.683    0.371    0.946 
 7028  399.440    4.014    3.264   34.872   27.683    0.371    0.946 
 7029  399.613    4.013    3.264   34.872   27.683    0.371    0.946 
 7031  399.960    4.012    3.264   34.872   27.683    0.371    0.946 
 7032  400.133    4.011    3.264   34.872   27.683    0.371    0.946 
 7033  400.480    4.010    3.264   34.872   27.683    0.371    0.946 
 7034  400.653    4.010    3.263   34.871   27.683    0.371    0.946 
 7036  400.827    4.009    3.263   34.871   27.683    0.371    0.946 
 7037  401.173    4.008    3.263   34.871   27.683    0.371    0.946 
 7038  401.347    4.008    3.263   34.871   27.683    0.371    0.946 
 7039  401.693    4.008    3.263   34.871   27.683    0.371    0.946 
 7041  401.867    4.004    3.263   34.871   27.683    0.371    0.946 
 7042  402.213    4.003    3.263   34.871   27.683    0.348    0.946 
 7043  402.387    4.003    3.263   34.871   27.683    0.348    0.946 
 7045  402.560    4.002    3.263   34.870   27.683    0.348    0.946 
 7046  402.733    4.002    3.263   34.870   27.683    0.348    0.946 
 7047  402.907    4.002    3.263   34.869   27.683    0.348    0.946 
 7049  403.080    4.001    3.263   34.869   27.683    0.348    0.946 
 7050  403.253    4.001    3.263   34.870   27.683    0.348    0.946 
 7052  403.427    4.000    3.263   34.870   27.683    0.348    0.946 
 7053  403.600    3.999    3.263   34.870   27.683    0.348    0.946 
 7056  403.773    3.998    3.263   34.871   27.684    0.324    0.946 
 7059  403.947    3.994    3.262   34.871   27.684    0.348    0.946 
 7061  404.120    3.993    3.262   34.871   27.684    0.324    0.943 
 7064  404.294    3.993    3.262   34.871   27.684    0.324    0.943 
 7067  404.467    3.993    3.262   34.871   27.684    0.324    0.943 
 7069  404.640    3.993    3.262   34.871   27.685    0.348    0.943 
 7072  404.814    3.993    3.262   34.871   27.685    0.348    0.943 
 7073  404.987    3.991    3.262   34.871   27.685    0.348    0.943 
 7075  405.160    3.990    3.262   34.871   27.685    0.348    0.943 
 7077  405.334    3.990    3.262   34.871   27.685    0.348    0.943 
 7079  405.507    3.989    3.262   34.871   27.685    0.348    0.943 
 7080  405.680    3.989    3.262   34.871   27.685    0.348    0.943 
 7082  405.854    3.989    3.262   34.871   27.685    0.348    0.943 
 7084  406.027    3.989    3.262   34.871   27.685    0.348    0.943 
 7085  406.200    3.989    3.262   34.871   27.685    0.348    0.943 
 7086  406.374    3.989    3.262   34.871   27.685    0.371    0.943 
 7087  406.547    3.989    3.262   34.871   27.685    0.348    0.943 
 7088  406.720    3.989    3.262   34.871   27.685    0.348    0.943 
 7089  406.894    3.989    3.262   34.871   27.685    0.348    0.943 
 7091  407.067    3.989    3.262   34.871   27.685    0.348    0.943 
 7092  407.240    3.989    3.262   34.871   27.685    0.348    0.943 
 7094  407.414    3.989    3.262   34.871   27.685    0.371    0.943 
 7095  407.587    3.990    3.262   34.871   27.685    0.348    0.943 
 7096  407.760    3.990    3.262   34.871   27.685    0.371    0.943 
 7098  407.934    3.991    3.262   34.871   27.684    0.371    0.943 
 7099  408.107    3.993    3.262   34.871   27.684    0.371    0.943 
 7101  408.281    3.994    3.262   34.871   27.684    0.348    0.943 
 7102  408.454    3.994    3.262   34.871   27.684    0.371    0.943 
 7103  408.627    3.994    3.262   34.871   27.684    0.371    0.943 
 7105  408.801    3.995    3.262   34.871   27.684    0.371    0.943 
 7106  408.974    3.996    3.263   34.870   27.684    0.371    0.943 
 7108  409.147    3.996    3.263   34.870   27.684    0.371    0.943 
 7109  409.321    3.996    3.263   34.870   27.683    0.371    0.943 
 7110  409.494    3.996    3.263   34.870   27.683    0.371    0.943 
 7112  409.667    3.996    3.263   34.870   27.683    0.371    0.943 
 7113  409.841    3.997    3.263   34.870   27.683    0.371    0.943 
 7115  410.014    3.997    3.263   34.870   27.683    0.371    0.943 
 7117  410.187    3.998    3.263   34.870   27.683    0.371    0.943 
 7120  410.361    3.999    3.263   34.870   27.683    0.371    0.943 
 7122  410.534    3.999    3.263   34.871   27.683    0.348    0.943 
 7124  410.707    3.999    3.263   34.871   27.683    0.324    0.943 
 7127  410.881    3.999    3.263   34.871   27.683    0.324    0.943 
 7131  411.054    3.999    3.263   34.870   27.683    0.324    0.943 
 7132  411.227    3.999    3.263   34.870   27.683    0.324    0.943 
 7136  411.401    4.000    3.263   34.870   27.683    0.324    0.943 
 7139  411.574    4.010    3.264   34.870   27.682    0.324    0.943 
 7142  411.747    4.012    3.264   34.870   27.682    0.324    0.943 
 7144  411.921    4.014    3.265   34.870   27.682    0.348    0.943 
 7145  412.094    4.015    3.265   34.870   27.681    0.371    0.943 
 7146  412.267    4.019    3.265   34.870   27.681    0.371    0.943 
 7148  412.441    4.020    3.265   34.870   27.681    0.371    0.943 
 7150  412.614    4.020    3.265   34.870   27.681    0.371    0.943 
 7152  412.787    4.020    3.265   34.870   27.681    0.348    0.943 
 7153  412.961    4.020    3.265   34.870   27.681    0.348    0.943 
 7154  413.134    4.020    3.265   34.870   27.681    0.348    0.943 
 7156  413.307    4.020    3.265   34.870   27.681    0.348    0.943 
 7157  413.481    4.020    3.265   34.871   27.681    0.348    0.943 
 7159  413.654    4.020    3.265   34.871   27.681    0.348    0.943 
 7160  413.827    4.020    3.265   34.871   27.681    0.348    0.943 
 7161  414.001    4.020    3.265   34.871   27.681    0.348    0.943 
 7162  414.174    4.019    3.265   34.871   27.682    0.348    0.943 
 7164  414.348    4.018    3.265   34.872   27.682    0.348    0.943 
 7166  414.521    4.016    3.265   34.873   27.683    0.324    0.943 
 7168  414.694    4.014    3.265   34.873   27.684    0.324    0.943 
 7170  414.868    4.013    3.265   34.873   27.684    0.324    0.943 
 7172  415.041    4.012    3.265   34.873   27.684    0.324    0.943 
 7173  415.214    4.012    3.265   34.873   27.684    0.324    0.943 
 7176  415.388    4.012    3.265   34.873   27.684    0.348    0.943 
 7178  415.561    4.012    3.265   34.873   27.684    0.348    0.943 
 7181  415.734    4.015    3.265   34.873   27.684    0.348    0.943 
 7182  415.908    4.015    3.265   34.874   27.684    0.348    0.943 
 7184  416.081    4.016    3.265   34.874   27.684    0.348    0.943 
 7186  416.254    4.016    3.265   34.874   27.684    0.348    0.943 
 7187  416.428    4.016    3.265   34.874   27.684    0.348    0.943 
 7188  416.601    4.016    3.265   34.873   27.684    0.348    0.943 
 7190  416.774    4.016    3.265   34.873   27.684    0.348    0.943 
 7191  416.948    4.016    3.265   34.873   27.684    0.348    0.943 
 7192  417.121    4.016    3.265   34.873   27.684    0.348    0.943 
 7193  417.294    4.016    3.265   34.873   27.684    0.348    0.943 
 7195  417.468    4.014    3.265   34.872   27.684    0.348    0.943 
 7196  417.641    4.008    3.265   34.872   27.684    0.324    0.943 
 7197  417.814    4.005    3.264   34.872   27.684    0.301    0.943 
 7199  418.161    3.998    3.264   34.872   27.684    0.324    0.943 
 7200  418.334    3.998    3.263   34.872   27.684    0.324    0.943 
 7201  418.508    3.998    3.263   34.872   27.684    0.324    0.943 
 7202  418.681    3.997    3.263   34.872   27.684    0.324    0.943 
 7203  418.854    3.996    3.263   34.872   27.685    0.348    0.943 
 7204  419.028    3.996    3.263   34.872   27.685    0.348    0.943 
 7205  419.201    3.995    3.263   34.872   27.685    0.371    0.943 
 7206  419.374    3.994    3.263   34.872   27.685    0.348    0.939 
 7207  419.548    3.994    3.263   34.871   27.685    0.348    0.939 
 7208  419.721    3.994    3.263   34.871   27.685    0.348    0.939 
 7209  419.894    3.992    3.263   34.871   27.685    0.348    0.939 
 7210  420.068    3.991    3.263   34.871   27.685    0.348    0.939 
 7212  420.241    3.989    3.263   34.873   27.686    0.371    0.939 
 7213  420.414    3.988    3.263   34.873   27.686    0.371    0.939 
 7214  420.588    3.988    3.263   34.873   27.687    0.371    0.939 
 7216  420.761    3.987    3.263   34.873   27.687    0.371    0.939 
 7217  420.934    3.987    3.263   34.874   27.687    0.371    0.939 
 7218  421.108    3.987    3.262   34.874   27.687    0.371    0.939 
 7221  421.281    3.983    3.262   34.874   27.688    0.348    0.939 
 7222  421.454    3.980    3.262   34.874   27.688    0.348    0.939 
 7225  421.628    3.979    3.262   34.874   27.688    0.348    0.939 
 7228  421.801    3.979    3.262   34.874   27.688    0.348    0.939 
 7231  421.974    3.979    3.262   34.874   27.688    0.324    0.939 
 7233  422.148    3.978    3.262   34.874   27.688    0.324    0.939 
 7236  422.321    3.978    3.262   34.874   27.688    0.324    0.939 
 7237  422.494    3.978    3.262   34.874   27.688    0.324    0.939 
 7240  422.668    3.978    3.262   34.874   27.688    0.301    0.939 
 7242  422.841    3.978    3.262   34.874   27.688    0.301    0.939 
 7243  423.014    3.978    3.262   34.874   27.688    0.324    0.939 
 7245  423.188    3.978    3.262   34.874   27.688    0.324    0.939 
 7246  423.361    3.978    3.262   34.874   27.688    0.348    0.939 
 7247  423.534    3.978    3.262   34.873   27.688    0.348    0.939 
 7249  423.708    3.978    3.262   34.873   27.688    0.348    0.939 
 7250  423.881    3.978    3.262   34.873   27.688    0.348    0.939 
 7251  424.054    3.978    3.262   34.873   27.688    0.348    0.939 
 7253  424.228    3.978    3.262   34.873   27.688    0.348    0.939 
 7254  424.401    3.978    3.262   34.873   27.688    0.371    0.939 
 7255  424.574    3.978    3.262   34.873   27.688    0.348    0.939 
 7256  424.748    3.978    3.262   34.873   27.688    0.348    0.939 
 7258  424.921    3.978    3.262   34.873   27.688    0.348    0.939 
 7260  425.094    3.978    3.262   34.873   27.687    0.371    0.939 
 7262  425.268    3.978    3.262   34.873   27.687    0.348    0.939 
 7266  425.441    3.978    3.262   34.873   27.687    0.371    0.939 
 7270  425.614    3.978    3.262   34.873   27.687    0.348    0.939 
 7274  425.788    3.978    3.262   34.872   27.687    0.348    0.936 
 7278  425.961    3.978    3.262   34.872   27.687    0.348    0.936 
 7281  426.134    3.978    3.262   34.872   27.687    0.348    0.936 
 7283  426.308    3.978    3.262   34.872   27.687    0.371    0.936 
 7285  426.481    3.978    3.262   34.872   27.687    0.348    0.936 
 7286  426.654    3.978    3.262   34.872   27.687    0.348    0.936 
 7288  426.828    3.979    3.262   34.871   27.686    0.348    0.936 
 7290  427.001    3.980    3.262   34.870   27.685    0.348    0.936 
 7291  427.174    3.980    3.262   34.870   27.685    0.324    0.936 
 7293  427.348    3.980    3.262   34.870   27.685    0.324    0.936 
 7295  427.521    3.980    3.262   34.870   27.685    0.348    0.936 
 7297  427.694    3.980    3.262   34.870   27.685    0.324    0.936 
 7298  427.868    3.980    3.262   34.869   27.685    0.324    0.936 
 7299  428.041    3.980    3.262   34.869   27.685    0.324    0.936 
 7301  428.214    3.981    3.262   34.869   27.684    0.324    0.936 
 7303  428.388    3.982    3.262   34.869   27.684    0.324    0.936 
 7304  428.561    3.983    3.262   34.869   27.684    0.324    0.936 
 7306  428.734    3.983    3.262   34.869   27.684    0.324    0.936 
 7307  428.908    3.983    3.262   34.869   27.684    0.324    0.936 
 7309  429.081    3.987    3.263   34.869   27.684    0.324    0.936 
 7310  429.254    3.987    3.263   34.869   27.684    0.324    0.936 
 7312  429.428    3.989    3.263   34.869   27.684    0.348    0.936 
 7314  429.601    3.993    3.263   34.870   27.684    0.348    0.936 
 7315  429.774    3.994    3.264   34.871   27.684    0.348    0.936 
 7316  429.948    3.994    3.264   34.871   27.684    0.348    0.936 
 7317  430.121    3.996    3.264   34.871   27.684    0.348    0.936 
 7319  430.294    3.999    3.264   34.871   27.684    0.348    0.936 
 7320  430.468    4.000    3.264   34.871   27.684    0.348    0.936 
 7321  430.641    4.001    3.264   34.873   27.685    0.348    0.936 
 7322  430.814    4.004    3.264   34.873   27.685    0.348    0.936 
 7323  430.988    4.004    3.265   34.873   27.685    0.348    0.936 
 7324  431.161    4.006    3.265   34.873   27.685    0.348    0.936 
 7325  431.334    4.008    3.265   34.875   27.685    0.348    0.936 
 7326  431.508    4.008    3.265   34.875   27.685    0.348    0.936 
 7327  431.681    4.010    3.265   34.875   27.685    0.348    0.936 
 7329  432.028    4.010    3.265   34.875   27.685    0.348    0.936 
 7331  432.374    4.011    3.265   34.874   27.685    0.348    0.936 
 7333  432.548    4.014    3.266   34.874   27.686    0.348    0.936 
 7334  432.721    4.014    3.266   34.874   27.686    0.348    0.936 
 7335  432.894    4.014    3.266   34.874   27.686    0.348    0.932 
 7336  433.068    4.015    3.266   34.875   27.686    0.348    0.932 
 7338  433.414    4.015    3.266   34.875   27.686    0.348    0.932 
 7339  433.588    4.015    3.266   34.875   27.686    0.348    0.932 
 7341  433.761    4.016    3.266   34.875   27.686    0.348    0.936 
 7343  433.934    4.016    3.266   34.876   27.686    0.348    0.932 
 7344  434.108    4.017    3.266   34.877   27.685    0.348    0.936 
 7346  434.281    4.019    3.266   34.877   27.685    0.348    0.936 
 7348  434.454    4.019    3.266   34.877   27.685    0.348    0.936 
 7350  434.628    4.019    3.266   34.876   27.685    0.348    0.936 
 7352  434.801    4.020    3.266   34.876   27.685    0.348    0.936 
 7354  434.974    4.020    3.267   34.875   27.685    0.348    0.936 
 7355  435.147    4.020    3.267   34.875   27.685    0.348    0.936 
 7358  435.321    4.020    3.267   34.875   27.685    0.348    0.936 
 7360  435.494    4.021    3.267   34.875   27.685    0.348    0.936 
 7361  435.667    4.021    3.267   34.875   27.686    0.348    0.932 
 7363  435.841    4.022    3.267   34.875   27.686    0.348    0.932 
 7364  436.014    4.025    3.267   34.875   27.686    0.348    0.932 
 7365  436.187    4.026    3.267   34.875   27.686    0.348    0.932 
 7366  436.361    4.026    3.267   34.875   27.686    0.348    0.932 
 7368  436.534    4.026    3.267   34.876   27.686    0.348    0.932 
 7369  436.707    4.026    3.267   34.880   27.688    0.348    0.932 
 7370  436.881    4.026    3.267   34.880   27.688    0.348    0.932 
 7371  437.054    4.026    3.267   34.880   27.688    0.348    0.932 
 7372  437.227    4.026    3.267   34.880   27.688    0.348    0.932 
 7373  437.401    4.027    3.267   34.880   27.688    0.348    0.932 
 7374  437.574    4.028    3.267   34.880   27.688    0.348    0.932 
 7375  437.747    4.029    3.268   34.881   27.689    0.348    0.932 
 7377  437.921    4.029    3.268   34.881   27.689    0.348    0.932 
 7378  438.094    4.029    3.268   34.881   27.689    0.348    0.932 
 7379  438.267    4.029    3.268   34.881   27.689    0.348    0.932 
 7380  438.441    4.029    3.268   34.881   27.689    0.348    0.932 
 7382  438.614    4.029    3.268   34.881   27.689    0.348    0.932 
 7383  438.787    4.029    3.268   34.881   27.689    0.348    0.932 
 7384  438.961    4.030    3.268   34.881   27.689    0.348    0.932 
 7386  439.134    4.030    3.268   34.881   27.689    0.371    0.932 
 7389  439.307    4.030    3.268   34.881   27.689    0.348    0.932 
 7411  439.481    4.029    3.268   34.881   27.689    0.348    0.932 
 7413  439.654    4.029    3.268   34.881   27.689    0.348    0.932 
 7414  439.827    4.029    3.268   34.881   27.689    0.348    0.932 
 7416  440.001    4.030    3.268   34.881   27.688    0.371    0.932 
 7417  440.174    4.030    3.268   34.881   27.688    0.371    0.932 
 7418  440.347    4.032    3.268   34.879   27.686    0.371    0.932 
 7420  440.521    4.032    3.268   34.878   27.686    0.371    0.932 
 7421  440.694    4.032    3.268   34.878   27.686    0.371    0.932 
 7422  440.867    4.033    3.268   34.878   27.686    0.371    0.932 
 7423  441.040    4.033    3.268   34.878   27.686    0.371    0.932 
 7424  441.214    4.034    3.268   34.878   27.686    0.371    0.932 
 7426  441.560    4.035    3.268   34.878   27.686    0.371    0.932 
 7427  441.734    4.035    3.268   34.878   27.686    0.371    0.932 
 7428  441.907    4.035    3.268   34.878   27.686    0.348    0.932 
 7429  442.080    4.035    3.268   34.878   27.686    0.371    0.932 
 7430  442.254    4.035    3.268   34.878   27.686    0.371    0.932 
 7431  442.427    4.035    3.268   34.878   27.686    0.348    0.932 
 7432  442.600    4.035    3.269   34.884   27.690    0.348    0.932 
 7433  442.774    4.035    3.269   34.884   27.690    0.348    0.932 
 7434  442.947    4.035    3.269   34.884   27.690    0.348    0.932 
 7435  443.120    4.035    3.269   34.884   27.690    0.348    0.932 
 7436  443.294    4.035    3.269   34.884   27.690    0.348    0.932 
 7437  443.467    4.035    3.269   34.884   27.690    0.348    0.932 
 7439  443.640    4.035    3.269   34.884   27.690    0.348    0.932 
 7440  443.814    4.035    3.269   34.884   27.690    0.348    0.932 
 7441  443.987    4.036    3.269   34.884   27.690    0.348    0.932 
 7442  444.160    4.036    3.269   34.884   27.690    0.348    0.932 
 7444  444.334    4.036    3.269   34.884   27.690    0.348    0.932 
 7445  444.507    4.036    3.269   34.884   27.690    0.348    0.932 
 7447  444.680    4.036    3.269   34.884   27.690    0.348    0.932 
 7449  444.853    4.036    3.269   34.884   27.690    0.348    0.932 
 7451  445.027    4.036    3.269   34.884   27.690    0.348    0.932 
 7453  445.200    4.036    3.269   34.884   27.690    0.348    0.929 
 7455  445.373    4.036    3.269   34.884   27.690    0.348    0.929 
 7456  445.547    4.036    3.269   34.883   27.690    0.348    0.929 
 7458  445.720    4.037    3.269   34.882   27.689    0.348    0.929 
 7460  445.893    4.037    3.269   34.882   27.689    0.348    0.929 
 7462  446.067    4.037    3.269   34.882   27.689    0.371    0.929 
 7464  446.240    4.037    3.269   34.882   27.689    0.371    0.932 
 7466  446.413    4.037    3.269   34.882   27.689    0.348    0.932 
 7467  446.587    4.037    3.269   34.882   27.689    0.348    0.932 
 7469  446.760    4.037    3.269   34.882   27.689    0.348    0.929 
 7471  446.933    4.037    3.269   34.882   27.688    0.324    0.929 
 7472  447.107    4.037    3.269   34.882   27.688    0.324    0.929 
 7473  447.280    4.037    3.269   34.882   27.688    0.324    0.929 
 7475  447.453    4.037    3.269   34.882   27.688    0.324    0.929 
 7476  447.627    4.037    3.269   34.882   27.688    0.324    0.929 
 7478  447.800    4.036    3.269   34.882   27.688    0.324    0.929 
 7479  447.973    4.036    3.269   34.882   27.688    0.301    0.929 
 7480  448.147    4.036    3.269   34.882   27.688    0.301    0.929 
 7481  448.320    4.036    3.269   34.882   27.688    0.301    0.929 
 7482  448.493    4.036    3.269   34.882   27.688    0.301    0.929 
 7484  448.840    4.036    3.269   34.882   27.688    0.301    0.929 
 7485  449.013    4.036    3.269   34.882   27.688    0.301    0.929 
 7487  449.186    4.036    3.269   34.882   27.688    0.324    0.929 
 7488  449.360    4.036    3.269   34.882   27.688    0.324    0.929 
 7489  449.533    4.036    3.269   34.882   27.688    0.324    0.929 
 7490  449.706    4.036    3.269   34.882   27.689    0.324    0.929 
 7491  449.880    4.036    3.269   34.882   27.689    0.324    0.929 
 7492  450.053    4.036    3.269   34.882   27.689    0.324    0.929 
 7494  450.226    4.036    3.269   34.882   27.689    0.324    0.929 
 7496  450.573    4.035    3.269   34.882   27.689    0.324    0.929 
 7499  450.920    4.031    3.269   34.886   27.692    0.324    0.929 
 7501  451.093    4.030    3.269   34.886   27.692    0.324    0.929 
 7503  451.266    4.030    3.269   34.886   27.692    0.324    0.929 
 7504  451.439    4.030    3.269   34.886   27.692    0.324    0.929 
 7506  451.613    4.030    3.269   34.886   27.692    0.324    0.929 
 7507  451.786    4.030    3.269   34.886   27.692    0.324    0.929 
 7509  451.959    4.030    3.269   34.886   27.692    0.324    0.929 
 7511  452.133    4.030    3.269   34.886   27.692    0.324    0.929 
 7513  452.306    4.030    3.269   34.886   27.692    0.324    0.929 
 7514  452.479    4.030    3.269   34.886   27.692    0.324    0.929 
 7516  452.653    4.030    3.269   34.886   27.692    0.324    0.929 
 7517  452.826    4.030    3.269   34.886   27.692    0.324    0.929 
 7519  452.999    4.030    3.269   34.886   27.692    0.324    0.929 
 7521  453.173    4.030    3.269   34.886   27.692    0.324    0.929 
 7522  453.346    4.030    3.269   34.886   27.692    0.324    0.929 
 7525  453.519    4.030    3.269   34.886   27.692    0.324    0.929 
 7528  453.693    4.030    3.269   34.886   27.692    0.348    0.929 
 7532  453.866    4.030    3.269   34.886   27.692    0.348    0.929 
 7536  454.039    4.029    3.269   34.885   27.692    0.348    0.929 
 7541  454.212    4.025    3.268   34.885   27.692    0.348    0.929 
 7545  454.386    4.015    3.268   34.884   27.692    0.348    0.929 
 7547  454.559    4.014    3.267   34.884   27.692    0.348    0.929 
 7550  454.732    4.012    3.267   34.884   27.692    0.348    0.929 
 7552  455.079    4.012    3.267   34.884   27.692    0.348    0.929 
 7554  455.252    4.012    3.267   34.884   27.692    0.348    0.929 
 7555  455.426    4.012    3.267   34.883   27.692    0.324    0.929 
 7556  455.599    4.011    3.267   34.883   27.692    0.348    0.929 
 7557  455.772    4.011    3.267   34.881   27.692    0.348    0.929 
 7558  455.946    4.009    3.267   34.881   27.692    0.348    0.929 
 7559  456.119    4.008    3.267   34.880   27.692    0.348    0.929 
 7560  456.465    4.008    3.267   34.881   27.692    0.348    0.929 
 7561  456.639    4.007    3.267   34.881   27.692    0.348    0.929 
 7562  456.812    4.007    3.267   34.881   27.692    0.371    0.929 
 7563  456.985    4.006    3.267   34.882   27.692    0.348    0.929 
 7564  457.159    4.005    3.266   34.882   27.692    0.348    0.929 
 7565  457.505    4.003    3.266   34.882   27.692    0.348    0.929 
 7567  457.852    3.994    3.266   34.882   27.693    0.348    0.929 
 7568  458.025    3.991    3.265   34.882   27.693    0.348    0.929 
 7569  458.199    3.990    3.265   34.882   27.693    0.348    0.929 
 7570  458.545    3.988    3.265   34.882   27.693    0.348    0.925 
 7571  458.718    3.986    3.265   34.882   27.693    0.348    0.925 
 7572  458.892    3.986    3.265   34.882   27.693    0.348    0.925 
 7573  459.065    3.986    3.265   34.882   27.693    0.324    0.925 
 7574  459.238    3.986    3.265   34.882   27.693    0.348    0.925 
 7575  459.412    3.986    3.265   34.882   27.693    0.348    0.925 
 7576  459.585    3.985    3.265   34.882   27.693    0.348    0.925 
 7578  459.758    3.985    3.265   34.882   27.693    0.324    0.925 
 7579  459.932    3.985    3.265   34.881   27.693    0.324    0.925 
 7582  460.105    3.985    3.265   34.881   27.693    0.324    0.925 
 7586  460.278    3.985    3.265   34.881   27.693    0.324    0.925 
 7597  460.452    3.987    3.265   34.881   27.693    0.348    0.925 
 7599  460.625    3.989    3.265   34.881   27.693    0.348    0.925 
 7601  460.798    3.990    3.265   34.881   27.692    0.348    0.925 
 7603  460.971    3.991    3.265   34.880   27.692    0.348    0.925 
 7604  461.145    3.995    3.265   34.880   27.692    0.348    0.925 
 7606  461.491    3.997    3.266   34.880   27.692    0.348    0.925 
 7608  461.665    3.997    3.266   34.880   27.692    0.348    0.925 
 7609  461.838    3.997    3.266   34.880   27.692    0.348    0.925 
 7610  462.011    3.997    3.266   34.880   27.692    0.348    0.925 
 7611  462.358    3.997    3.266   34.880   27.692    0.371    0.925 
 7612  462.531    3.997    3.266   34.880   27.692    0.348    0.925 
 7614  462.878    3.997    3.266   34.880   27.692    0.371    0.925 
 7615  463.224    3.997    3.266   34.880   27.692    0.371    0.925 
 7616  463.398    3.997    3.266   34.881   27.692    0.371    0.925 
 7617  463.571    3.996    3.266   34.881   27.692    0.371    0.925 
 7618  463.744    3.996    3.266   34.881   27.692    0.371    0.925 
 7619  463.918    3.996    3.266   34.881   27.692    0.348    0.925 
 7620  464.264    3.996    3.266   34.881   27.692    0.348    0.925 
 7622  464.611    3.996    3.266   34.881   27.692    0.348    0.925 
 7624  464.957    3.995    3.266   34.881   27.692    0.348    0.925 
 7625  465.131    3.995    3.266   34.881   27.692    0.348    0.925 
 7627  465.304    3.994    3.266   34.881   27.692    0.348    0.925 
 7628  465.477    3.993    3.266   34.881   27.692    0.348    0.925 
 7629  465.651    3.992    3.266   34.881   27.692    0.324    0.925 
 7631  465.824    3.991    3.266   34.881   27.692    0.324    0.925 
 7634  465.997    3.991    3.266   34.881   27.692    0.324    0.925 
 7641  466.171    3.991    3.266   34.881   27.692    0.324    0.925 
 7647  466.344    3.991    3.266   34.881   27.692    0.324    0.925 
 7651  466.517    3.990    3.266   34.881   27.692    0.324    0.925 
 7653  466.690    3.990    3.266   34.881   27.692    0.324    0.925 
 7654  466.864    3.990    3.266   34.881   27.692    0.348    0.925 
 7656  467.037    3.989    3.265   34.878   27.690    0.348    0.925 
 7657  467.210    3.989    3.265   34.878   27.690    0.348    0.925 
 7659  467.384    3.987    3.265   34.878   27.690    0.348    0.925 
 7660  467.557    3.987    3.265   34.878   27.690    0.348    0.925 
 7661  467.730    3.986    3.265   34.878   27.690    0.348    0.925 
 7663  467.904    3.986    3.265   34.878   27.690    0.348    0.925 
 7664  468.077    3.986    3.265   34.878   27.690    0.348    0.925 
 7665  468.423    3.986    3.265   34.878   27.690    0.348    0.925 
 7667  468.597    3.985    3.265   34.878   27.690    0.348    0.925 
 7668  468.770    3.985    3.265   34.878   27.690    0.348    0.925 
 7669  468.943    3.985    3.265   34.878   27.690    0.348    0.925 
 7670  469.117    3.985    3.265   34.878   27.691    0.348    0.925 
 7671  469.290    3.985    3.265   34.878   27.691    0.348    0.925 
 7672  469.463    3.985    3.265   34.878   27.691    0.348    0.925 
 7674  469.637    3.984    3.265   34.878   27.691    0.348    0.922 
 7675  469.810    3.984    3.265   34.878   27.691    0.348    0.922 
 7676  469.983    3.983    3.265   34.878   27.691    0.348    0.922 
 7678  470.156    3.983    3.265   34.878   27.691    0.348    0.922 
 7679  470.330    3.982    3.265   34.878   27.691    0.348    0.922 
 7680  470.503    3.982    3.265   34.878   27.691    0.348    0.922 
 7682  470.676    3.981    3.265   34.878   27.691    0.348    0.922 
 7684  470.850    3.980    3.265   34.878   27.692    0.348    0.922 
 7687  471.023    3.978    3.265   34.879   27.692    0.348    0.922 
 7688  471.196    3.977    3.265   34.879   27.693    0.348    0.922 
 7690  471.370    3.976    3.265   34.879   27.693    0.348    0.922 
 7693  471.543    3.975    3.264   34.880   27.693    0.348    0.922 
 7696  471.716    3.974    3.264   34.880   27.694    0.348    0.922 
 7698  471.889    3.974    3.264   34.880   27.694    0.348    0.922 
 7702  472.063    3.974    3.264   34.881   27.694    0.371    0.922 
 7704  472.236    3.973    3.264   34.881   27.695    0.371    0.922 
 7705  472.409    3.972    3.264   34.881   27.695    0.348    0.922 
 7707  472.583    3.971    3.264   34.881   27.695    0.371    0.922 
 7709  472.756    3.970    3.264   34.881   27.695    0.417    0.922 
 7711  472.929    3.968    3.264   34.881   27.695    0.348    0.922 
 7712  473.103    3.968    3.264   34.881   27.695    0.348    0.922 
 7713  473.276    3.968    3.264   34.881   27.695    0.348    0.922 
 7715  473.622    3.968    3.264   34.881   27.695    0.348    0.922 
 7716  473.796    3.968    3.264   34.881   27.695    0.348    0.922 
 7717  473.969    3.967    3.264   34.881   27.695    0.348    0.922 
 7719  474.142    3.967    3.264   34.881   27.695    0.371    0.922 
 7720  474.489    3.967    3.264   34.881   27.695    0.348    0.922 
 7722  474.662    3.966    3.264   34.881   27.695    0.371    0.922 
 7723  475.009    3.965    3.264   34.881   27.695    0.348    0.922 
 7725  475.355    3.964    3.264   34.881   27.695    0.348    0.922 
 7726  475.529    3.963    3.263   34.876   27.692    0.371    0.922 
 7727  475.702    3.963    3.263   34.876   27.692    0.371    0.922 
 7728  475.875    3.963    3.263   34.876   27.692    0.371    0.922 
 7729  476.049    3.963    3.263   34.876   27.692    0.371    0.922 
 7730  476.222    3.962    3.263   34.876   27.692    0.348    0.922 
 7731  476.395    3.962    3.263   34.876   27.692    0.348    0.922 
 7733  476.568    3.961    3.263   34.876   27.692    0.348    0.922 
 7734  476.742    3.961    3.263   34.876   27.692    0.348    0.922 
 7735  476.915    3.961    3.263   34.876   27.692    0.348    0.922 
 7737  477.088    3.960    3.263   34.876   27.692    0.348    0.922 
 7738  477.262    3.960    3.263   34.876   27.692    0.348    0.922 
 7740  477.435    3.960    3.263   34.876   27.692    0.348    0.922 
 7744  477.608    3.959    3.263   34.876   27.692    0.348    0.922 
 7747  477.781    3.959    3.263   34.876   27.692    0.348    0.922 
 7751  477.955    3.958    3.263   34.876   27.692    0.348    0.922 
 7754  478.128    3.958    3.263   34.876   27.692    0.348    0.922 
 7756  478.301    3.958    3.263   34.876   27.692    0.348    0.922 
 7758  478.475    3.957    3.263   34.876   27.692    0.348    0.922 
 7759  478.648    3.956    3.263   34.876   27.692    0.348    0.922 
 7761  478.821    3.953    3.263   34.876   27.692    0.348    0.922 
 7762  478.995    3.952    3.263   34.877   27.692    0.348    0.922 
 7763  479.341    3.952    3.263   34.877   27.692    0.348    0.919 
 7765  479.514    3.952    3.262   34.878   27.692    0.348    0.922 
 7766  479.688    3.952    3.262   34.878   27.692    0.348    0.922 
 7767  480.034    3.952    3.262   34.878   27.692    0.348    0.922 
 7769  480.208    3.952    3.262   34.879   27.692    0.348    0.922 
 7770  480.554    3.951    3.262   34.879   27.692    0.348    0.922 
 7772  480.901    3.950    3.262   34.879   27.692    0.348    0.922 
 7773  481.074    3.949    3.262   34.875   27.692    0.348    0.922 
 7774  481.247    3.948    3.262   34.874   27.692    0.348    0.922 
 7775  481.421    3.944    3.262   34.874   27.691    0.348    0.922 
 7776  481.594    3.943    3.262   34.873   27.691    0.348    0.922 
 7777  481.767    3.942    3.262   34.872   27.691    0.348    0.922 
 7778  481.940    3.941    3.262   34.872   27.691    0.348    0.922 
 7779  482.114    3.941    3.262   34.872   27.691    0.348    0.922 
 7781  482.287    3.940    3.262   34.872   27.691    0.348    0.922 
 7782  482.460    3.940    3.261   34.872   27.690    0.348    0.922 
 7784  482.634    3.940    3.261   34.871   27.690    0.348    0.922 
 7785  482.807    3.940    3.261   34.871   27.690    0.348    0.919 
 7794  482.980    3.941    3.261   34.871   27.690    0.324    0.919 
 7803  483.153    3.941    3.262   34.871   27.690    0.324    0.919 
 7806  483.327    3.940    3.261   34.871   27.690    0.324    0.919 
 7808  483.500    3.939    3.261   34.871   27.690    0.324    0.919 
 7809  483.673    3.939    3.261   34.871   27.690    0.348    0.919 
 7810  483.847    3.939    3.261   34.871   27.690    0.348    0.919 
 7812  484.020    3.939    3.261   34.871   27.690    0.348    0.919 
 7813  484.193    3.939    3.261   34.871   27.690    0.348    0.919 
 7814  484.366    3.939    3.261   34.871   27.690    0.348    0.919 
 7815  484.713    3.939    3.261   34.871   27.690    0.348    0.919 
 7817  484.886    3.939    3.261   34.871   27.690    0.348    0.919 
 7818  485.060    3.939    3.261   34.871   27.690    0.348    0.919 
 7819  485.406    3.939    3.261   34.871   27.690    0.348    0.919 
 7820  485.580    3.940    3.262   34.878   27.695    0.348    0.919 
 7821  485.753    3.940    3.262   34.878   27.695    0.348    0.919 
 7822  485.926    3.942    3.262   34.878   27.695    0.348    0.919 
 7823  486.273    3.942    3.262   34.878   27.695    0.348    0.919 
 7825  486.446    3.942    3.262   34.878   27.695    0.348    0.919 
 7826  486.619    3.942    3.262   34.878   27.695    0.348    0.919 
 7827  486.966    3.942    3.262   34.878   27.695    0.348    0.919 
 7828  487.139    3.942    3.262   34.878   27.695    0.324    0.919 
 7829  487.312    3.942    3.262   34.878   27.695    0.348    0.919 
 7830  487.486    3.942    3.262   34.878   27.695    0.348    0.919 
 7831  487.659    3.942    3.262   34.878   27.695    0.324    0.919 
 7833  487.832    3.942    3.262   34.878   27.695    0.324    0.919 
 7834  488.005    3.942    3.262   34.878   27.695    0.324    0.919 
 7836  488.352    3.942    3.262   34.878   27.695    0.348    0.919 
 7838  488.525    3.942    3.262   34.878   27.695    0.324    0.919 
 7843  488.699    3.942    3.262   34.878   27.695    0.324    0.919 
 7853  488.872    3.942    3.262   34.878   27.695    0.348    0.919 
 7858  489.045    3.942    3.262   34.878   27.695    0.348    0.919 
 7861  489.218    3.942    3.262   34.878   27.695    0.348    0.919 
 7862  489.392    3.942    3.262   34.878   27.695    0.348    0.919 
 7864  489.565    3.942    3.262   34.878   27.695    0.348    0.919 
 7866  489.738    3.940    3.262   34.879   27.696    0.348    0.919 
 7867  489.912    3.939    3.262   34.879   27.696    0.348    0.919 
 7868  490.085    3.939    3.262   34.879   27.696    0.348    0.919 
 7869  490.258    3.939    3.262   34.879   27.696    0.348    0.919 
 7870  490.605    3.939    3.262   34.879   27.696    0.324    0.915 
 7871  490.778    3.939    3.262   34.879   27.697    0.324    0.915 
 7872  490.951    3.939    3.262   34.879   27.697    0.324    0.915 
 7873  491.125    3.939    3.262   34.879   27.697    0.324    0.915 
 7874  491.298    3.939    3.262   34.879   27.697    0.324    0.915 
 7875  491.471    3.939    3.262   34.879   27.697    0.324    0.915 
 7876  491.818    3.939    3.262   34.879   27.697    0.324    0.915 
 7877  491.991    3.938    3.262   34.879   27.697    0.324    0.915 
 7878  492.338    3.938    3.262   34.879   27.697    0.301    0.919 
 7879  492.511    3.938    3.262   34.879   27.697    0.301    0.915 
 7880  492.857    3.938    3.262   34.879   27.697    0.301    0.915 
 7881  493.031    3.938    3.262   34.879   27.697    0.301    0.915 
 7882  493.204    3.938    3.262   34.879   27.697    0.324    0.915 
 7883  493.377    3.938    3.262   34.879   27.697    0.324    0.915 
 7884  493.551    3.938    3.262   34.879   27.697    0.324    0.915 
 7885  493.724    3.938    3.262   34.879   27.697    0.324    0.915 
 7886  493.897    3.937    3.262   34.880   27.697    0.324    0.915 
 7887  494.070    3.936    3.262   34.880   27.697    0.324    0.915 
 7888  494.244    3.936    3.262   34.880   27.697    0.324    0.915 
 7889  494.417    3.934    3.262   34.880   27.697    0.324    0.915 
 7890  494.590    3.934    3.262   34.880   27.697    0.324    0.915 
 7891  494.764    3.934    3.262   34.880   27.697    0.324    0.915 
 7893  494.937    3.934    3.262   34.880   27.697    0.348    0.915 
 7895  495.110    3.934    3.262   34.880   27.697    0.348    0.915 
 7908  495.283    3.938    3.262   34.880   27.697    0.348    0.915 
 7920  495.457    3.935    3.262   34.880   27.697    0.348    0.915 
 7921  495.630    3.934    3.262   34.880   27.697    0.348    0.915 
 7923  495.803    3.933    3.262   34.878   27.696    0.348    0.915 
 7924  495.976    3.932    3.261   34.877   27.696    0.348    0.915 
 7925  496.150    3.931    3.261   34.877   27.696    0.324    0.915 
 7926  496.323    3.930    3.261   34.877   27.696    0.324    0.915 
 7927  496.496    3.930    3.261   34.877   27.696    0.348    0.915 
 7928  496.670    3.930    3.261   34.877   27.696    0.324    0.915 
 7929  496.843    3.929    3.261   34.877   27.696    0.324    0.915 
 7930  497.016    3.929    3.261   34.876   27.695    0.324    0.915 
 7931  497.363    3.928    3.261   34.876   27.695    0.324    0.915 
 7932  497.536    3.927    3.261   34.875   27.695    0.324    0.915 
 7933  497.709    3.926    3.261   34.875   27.695    0.324    0.915 
 7934  498.056    3.926    3.261   34.874   27.695    0.324    0.915 
 7935  498.229    3.925    3.261   34.874   27.695    0.324    0.915 
 7936  498.402    3.924    3.261   34.874   27.695    0.324    0.915 
 7937  498.749    3.923    3.261   34.874   27.695    0.324    0.915 
 7938  498.922    3.920    3.261   34.874   27.695    0.324    0.915 
 7939  499.095    3.917    3.260   34.874   27.695    0.324    0.915 
 7940  499.269    3.917    3.260   34.874   27.695    0.324    0.915 
 7941  499.442    3.917    3.260   34.874   27.695    0.324    0.915 
 7942  499.615    3.917    3.260   34.874   27.694    0.324    0.915 
 7943  499.789    3.917    3.260   34.874   27.695    0.324    0.915 
 7944  499.962    3.917    3.260   34.874   27.695    0.324    0.915 
 7945  500.135    3.917    3.260   34.874   27.695    0.324    0.915 
 7946  500.308    3.917    3.260   34.874   27.695    0.324    0.915 
 7948  500.482    3.917    3.260   34.874   27.695    0.324    0.915 
 7980  500.655    3.919    3.260   34.874   27.695    0.324    0.912 
 7981  500.828    3.918    3.260   34.874   27.695    0.324    0.912 
 7982  501.001    3.918    3.260   34.874   27.695    0.324    0.915 
 7983  501.348    3.918    3.260   34.874   27.695    0.324    0.912 
 7984  501.521    3.917    3.260   34.874   27.695    0.348    0.915 
 7985  501.695    3.916    3.260   34.874   27.695    0.348    0.915 
 7986  501.868    3.916    3.260   34.874   27.695    0.348    0.915 
 7987  502.214    3.916    3.260   34.874   27.695    0.348    0.915 
 7988  502.388    3.916    3.260   34.874   27.695    0.348    0.915 
 7989  502.561    3.916    3.260   34.874   27.695    0.324    0.915 
 7990  502.907    3.916    3.260   34.874   27.695    0.348    0.915 
 7991  503.081    3.916    3.260   34.874   27.695    0.371    0.912 
 7992  503.254    3.916    3.260   34.874   27.695    0.371    0.912 
 7993  503.601    3.914    3.260   34.874   27.695    0.371    0.912 
 7994  503.774    3.913    3.260   34.875   27.695    0.371    0.912 
 7995  503.947    3.913    3.260   34.875   27.696    0.371    0.912 
 7996  504.294    3.913    3.260   34.875   27.696    0.371    0.912 
 7997  504.467    3.913    3.260   34.876   27.696    0.371    0.912 
 7998  504.640    3.912    3.260   34.876   27.696    0.371    0.912 
 7999  504.813    3.912    3.260   34.877   27.697    0.371    0.912 
 8000  504.987    3.912    3.260   34.877   27.697    0.371    0.912 
 8002  505.160    3.912    3.260   34.876   27.697    0.348    0.912 
 8004  505.333    3.912    3.260   34.876   27.697    0.324    0.912 
 8039  505.507    3.914    3.260   34.874   27.695    0.348    0.912 
 8042  505.680    3.913    3.260   34.875   27.696    0.348    0.912 
 8044  505.853    3.913    3.260   34.875   27.696    0.324    0.912 
 8047  506.026    3.912    3.260   34.876   27.697    0.324    0.912 
 8049  506.200    3.912    3.260   34.876   27.697    0.348    0.912 
 8271  506.373    3.911    3.260   34.877   27.698    0.371    0.905 
 8274  506.546    3.911    3.260   34.877   27.698    0.371    0.905 
